Process Area,Data Stream Name,Data Stream Definition,Type,Comments,Key Value
DM_01,CL_TX_DM,[TX]::[Intermediate.DM_JN_EX],Derived,,DM_01.CL_TX_DM
DM_01,AR_DM,,Source,,DM_01.AR_DM
EX_01,MER_EX,"[MG]::[EX.PART_SM_EX],[EX.PART_SMAB_EX],[EX.PART_SMAU_EX],[EX.PART_EX_AR_SMR_EX],[EX.PART_SMLS_EX]",Derived,,EX_01.MER_EX
EX_01,CL_TX_SM_EX,[TX]::[Source.AR_SM_EX],Derived,,EX_01.CL_TX_SM_EX
EX_01,AR_SM_EX,,Source,,EX_01.AR_SM_EX
EX_01,CL_TX_SMAB_EX,[TX]::[Source.AR_SMAB_EX],Derived,,EX_01.CL_TX_SMAB_EX
EX_01,AR_SMAB_EX,,Source,,EX_01.AR_SMAB_EX
DM_01,DM_JN_EX,"[JN]::[Source.AR_DM: key={source.AR_DM.USUBJID}]*,[Intermediate.EX_AGG: key={intermediate.EX_AGG.USUBJID}],[Source.AR_DEATH_CE: key={source.AR_DEATH_CE.USUBJID}],[Source.AR_SA_SC: key={source.AR_SA_SC.USUBJID}]",Derived,,DM_01.DM_JN_EX
DM_01,EX_AGG,[AG]::[Target.EX: key={ldm.EX.USUBJID}],Derived,,DM_01.EX_AGG
EC_01,CL_SM_EC,[TX]::[Intermediate.SM_TX],Derived,,EC_01.CL_SM_EC
DS_01,CL_DS01_DS,"[TX]::[Source.AR_DS01_DS: filter={source.AR_DS01_DS.DSTERM!=""DEATH""}]",Derived,,DS_01.CL_DS01_DS
DS_01,AR_DS01_DS,,Source,,DS_01.AR_DS01_DS
SV_01,CL_DOV_SV,[TX]::[Source.AR_DOV_SV],Derived,,SV_01.CL_DOV_SV
SV_01,AR_DOV_SV,,Source,,SV_01.AR_DOV_SV
BS_01,CL_SCI_BS,[TX]::[Source.AR_SCI_BS],Derived,,BS_01.CL_SCI_BS
BS_01,AR_SCI_BS,,Source,,BS_01.AR_SCI_BS
DS_01,CL_DOLC_DS,[TX]::[Source.AR_DOLC_DS],Derived,,DS_01.CL_DOLC_DS
DS_01,AR_DOLC_DS,,Source,,DS_01.AR_DOLC_DS
DS_01,CL_FBRC_ZE,[TX filter={CL_FBRC_ZE.DSTERM != ''}]::[Intermediate.REASON_JN],Derived,,DS_01.CL_FBRC_ZE
DS_01,AR_FBRC_ZE,,Source,,DS_01.AR_FBRC_ZE
DS_01,CL_PMS1_DS,"[TX]::[Source.AR_PMS1_DS: filter={source.AR_PMS1_DS.DSTERM!=""DEATH""}]",Derived,,DS_01.CL_PMS1_DS
DS_01,AR_PMS1_DS,,Source,,DS_01.AR_PMS1_DS
DS_01,CL_SR_DS,[TX]::[Source.AR_SR_DS],Derived,,DS_01.CL_SR_DS
DS_01,AR_SR_DS,,Source,,DS_01.AR_SR_DS
DS_01,CL_SSTC_ZF,[TX]::[Source.AR_SSTC_ZF],Derived,,DS_01.CL_SSTC_ZF
DS_01,AR_SSTC_ZF,,Source,,DS_01.AR_SSTC_ZF
DS_01,MER_DS,"[MG filter={ldm.DS.DSTERM !=''}]::[DS.PART_DS01_DS],[DS.PART_DOLC_DS],[DS.PART_FBRC_ZE],[DS.PART_PMS1_DS],[DS.PART_SR_DS],[DS.PART_SSTC_ZF],[DS.PART_CL_DEATH_DS],[DS.PART_CL_SRR_DS]",Derived,,DS_01.MER_DS
AE_01,CL_AE,[TX]::[Source.AR_AE],Derived,,AE_01.CL_AE
AE_01,AR_AE,,Source,,AE_01.AR_AE
PR_01,CL_PROC_PR,[TX]::[Source.AR_PROC_PR],Derived,,PR_01.CL_PROC_PR
PR_01,AR_PROC_PR,,Source,,PR_01.AR_PROC_PR
PR_01,MER_PR,"[MG]::[PR.PART_PROC_PR],[PR.PART_HSCT_PR],[PR.PART_CL_CDIHX_PR],[PR.PART_CL_RTP_PR],[PR.PART_CL_SI_PR],[PR.PART_CL_PROCE_EDT_PR],[PR.PART_CL_PR_SCAN_PR],[PR.PART_CL_AOS_PR],[PR.PART_CL_PR_PSF_PR],[PR.PART_CL_PR_UTA1_PR]",Derived,,PR_01.MER_PR
IE_01,CL_IE,[TX]::[Source.AR_IE],Derived,,IE_01.CL_IE
IE_01,AR_IE,,Source,,IE_01.AR_IE
MI_01,CL_SLAB_PH,[TX]::[Source.AR_SLAB_PH],Derived,,MI_01.CL_SLAB_PH
MI_01,AR_SLAB_PH,,Source,,MI_01.AR_SLAB_PH
CE_01,CL_COUGHE_EDT_CE,[TX]::[Source.AR_COUGHE_EDT_CE],Derived,,CE_01.CL_COUGHE_EDT_CE
CE_01,AR_COUGHE_EDT_CE,,Source,,CE_01.AR_COUGHE_EDT_CE
SE_01,TX_SE,[TX]::[Intermediate.SE_JN_DM],Derived,,SE_01.TX_SE
SE_01,SE,,Source,,SE_01.SE
SE_01,SE_JN_DM,"[JN]::[Source.SE: key={source.SE.USUBJID}]*,[Source.AR_DM: key={source.AR_DM.USUBJID}]",Derived,,SE_01.SE_JN_DM
QS_01,CL_AUDITC_QS,[TX]::[Source.AR_AUDITC_QS: filter={upcase(  source.AR_AUDITC_QS.QSTESTCD) != 'VERSION'}],Derived,,QS_01.CL_AUDITC_QS
QS_01,AR_AUDITC_QS,,Source,,QS_01.AR_AUDITC_QS
QS_01,MER_QS,"[MG]::[QS.PART_CL_AUDITC_QS],[QS.PART_CL_CSD_EDT_QS],[QS.PART_CL_CSVAS_EDT_QS],[QS.PART_CL_EQ5D5_EDT_QS],[QS.PART_CL_HARQ_EDT_QS],[QS.PART_CL_LCQC_EDT_QS],[QS.PART_CL_PGI_EDT_QS],[QS.PART_CL_SF12E_EDT_QS],[QS.PART_WPAISHP_EDT_QS],[QS.PART_CL_EHP5_EDT_QS],[QS.PART_CL_PGIM_EDT_QS],[QS.PART_CL_PPDD_EDT_QS],[QS.PART_CL_ESS_QS],[QS.PART_CL_FOSQ_QS],[QS.PART_CL_MSQ_QS],[QS.PART_CL_PI_QS],[QS.PART_CL_MVAS_QS],[QS.PART_CL_CSSHX_QS],[QS.PART_CL_CSSLA_QS],[QS.PART_CL_SF36E_EDT_QS],[QS.PART_CL_PAA2_QS],[QS.PART_CL_FACES_QS],[QS.PART_CL_FLACC_QS],[QS.PART_CL_PAAM_QS],[QS.PART_CL_ASQ_QS],[QS.PART_CL_HSDC_QS],[QS.PART_CL_CSD_QS],[QS.PART_CL_LCQ_QS],[QS.PART_CL_EQ5D5L_QS],[QS.PART_CL_PGI_QS],[QS.PART_CL_BASFI_EDT_QS],[QS.PART_QS_BASDAI_EDT_QS],[QS.PART_CL_GADI_EDT_QS],[QS.PART_QS_CL_PGD_EDT_QS],[QS.PART_CL_TBP_EDT_QS],[QS.PART_CL_PI_EDT_QS],[QS.PART_CL_SDM_QS],[QS.PART_FAHI_QS],[QS.PART_HIVTS_QS],[QS.PART_CL_WPAI_EDT_QS]",Derived,,QS_01.MER_QS
IS_01,CL_IMUNG_EDT_LB_IS,[TX]::[Source.AR_IMUNG_EDT_LB],Derived,,IS_01.CL_IMUNG_EDT_LB_IS
IS_01,AR_IMUNG_EDT_LB,,Source,,IS_01.AR_IMUNG_EDT_LB
SC_01,CL_SR_SC,[TX]::[Source.AR_SR_SC],Derived,,SC_01.CL_SR_SC
SC_01,AR_SR_SC,,Source,,SC_01.AR_SR_SC
SC_01,CL_SR1_SC,[TX]::[Source.AR_SR1_SC],Derived,,SC_01.CL_SR1_SC
SC_01,AR_SR1_SC,,Source,,SC_01.AR_SR1_SC
SC_01,MER_SC,"[MG]::[SC.PART_CL_SR_SC],[SC.PART_CL_SR1_SC],[SC.PART_CL_PEDI1_SC],[SC.PART_CL_ADI_SC],[SC.PART_CL_SRR_SC],[SC.PART_AGI_SC]",Derived,,SC_01.MER_SC
SC_01,CL_PEDI1_SC,"[TX]::[Source.AR_PEDI1_SC: filter={source.AR_PEDI1_SC.SCTESTCD = ""EGESTAGE""}]",Derived,,SC_01.CL_PEDI1_SC
SC_01,AR_PEDI1_SC,,Source,,SC_01.AR_PEDI1_SC
SU_01,CL_SU,[TX]::[Source.AR_SU],Derived,,SU_01.CL_SU
FA_01,AR_SU,,Source,,FA_01.AR_SU
VS_01,CL_VS02_VS,[TX]::[Source.AR_VS02_VS],Derived,,VS_01.CL_VS02_VS
VS_01,AR_VS02_VS,,Source,,VS_01.AR_VS02_VS
VS_01,MER_VS,"[MG]::[VS.PART_CL_VS_PEDI1_SC],[VS.PART_CL_VS02_VS],[VS.PART_CL_CA_VS],[VS.PART_VSE_EDT],[VS.PART_CL_VS_RM_VS],[VS.PART_CL_VS_CCM_VS]",Derived,,VS_01.MER_VS
VS_01,CL_VS_PEDI1_SC,"[TX]::[Source.AR_PEDI1_SC: filter={source.AR_PEDI1_SC.SCTESTCD = ""WEIGHT""}]",Derived,,VS_01.CL_VS_PEDI1_SC
MB_01,CL_SLAB_MB,[TX]::[Source.AR_SLAB_MB],Derived,,MB_01.CL_SLAB_MB
MB_01,AR_SLAB_MB,,Source,,MB_01.AR_SLAB_MB
LB_01,CL_LABS_EDT_LB,[TX filter={CL_LABS_EDT_LB.LBTESTCD !=''}]::[Source.AR_LABS_EDT_LB],Derived,,LB_01.CL_LABS_EDT_LB
MB_01,AR_LABS_EDT_LB,,Source,,MB_01.AR_LABS_EDT_LB
QS_01,CL_CSD_EDT_QS,[TX]::[Intermediate.TX_JN_CSD_EDT],Derived,,QS_01.CL_CSD_EDT_QS
QS_01,AR_CSD_EDT_QS,,Source,,QS_01.AR_CSD_EDT_QS
QS_01,CL_CSVAS_EDT_QS,[TX]::[Intermediate.TX_JN_CSVAS_EDT],Derived,,QS_01.CL_CSVAS_EDT_QS
QS_01,AR_CSVAS_EDT_QS,,Source,,QS_01.AR_CSVAS_EDT_QS
QS_01,CL_EQ5D5_EDT_QS,[TX]::[Intermediate.TX_JN_EQ5D5_EDT],Derived,,QS_01.CL_EQ5D5_EDT_QS
QS_01,AR_EQ5D5_EDT_QS,,Source,,QS_01.AR_EQ5D5_EDT_QS
QS_01,CL_HARQ_EDT_QS,[TX]::[Intermediate.TX_JN_HARQ_EDT],Derived,,QS_01.CL_HARQ_EDT_QS
QS_01,AR_HARQ_EDT_QS,,Source,,QS_01.AR_HARQ_EDT_QS
QS_01,CL_LCQC_EDT_QS,[TX]::[Source.AR_LCQC_EDT_QS: filter={upcase( source.AR_LCQC_EDT_QS.QSTESTCD ) != 'VERSION'}],Derived,,QS_01.CL_LCQC_EDT_QS
QS_01,AR_LCQC_EDT_QS,,Source,,QS_01.AR_LCQC_EDT_QS
QS_01,CL_PGI_EDT_QS,[TX]::[Intermediate.TX_JN_PGI_EDT],Derived,,QS_01.CL_PGI_EDT_QS
QS_01,AR_PGI_EDT_QS,,Source,,QS_01.AR_PGI_EDT_QS
QS_01,CL_SF12E_EDT_QS,[TX]::[Intermediate.TX_JN_SF12E],Derived,,QS_01.CL_SF12E_EDT_QS
QS_01,AR_SF12E_EDT_QS,,Source,,QS_01.AR_SF12E_EDT_QS
LB_01,MER_LB,"[MG]::[LB.PART_LABS_EDT_LB],[LB.PART_SLAB_LB],[LB.PART_UA_LB],[LB.PART_HLB_LB],[LB.PART_CLB_LB],[LB.PART_ULB_LB],[LB.PART_LB_PD2_BS],[LB.PART_CL_LB_RM_LB],[LB.PART_CL_LB_RM_CF],[LB.PART_CL_LB_OLB_LB],[LB.PART_LB_PD3],[LB.PART_CL_FSG_LB],[LB.PART_LB_GC_LB]",Derived,,LB_01.MER_LB
LB_01,CL_SLAB_LB,[TX]::[Source.AR_SLAB_LB],Derived,,LB_01.CL_SLAB_LB
LB_01,AR_SLAB_LB,,Source,,LB_01.AR_SLAB_LB
LB_01,CL_UA_LB,[TX]::[Source.AR_UA_LB],Derived,,LB_01.CL_UA_LB
LB_01,AR_UA_LB,,Source,,LB_01.AR_UA_LB
DD_01,CL_DEATH_CE,[TX]::[Intermediate.NOR_DD],Derived,,DD_01.CL_DEATH_CE
DD_01,NOR_DD,"[NM]::[Source.AR_DEATH_CE: items={Item1,Item2,Item3,Item4,Item5,Item6,Item7,Item8,Item9,Item10,Item11}]",Derived,,DD_01.NOR_DD
DM_01,AR_DEATH_CE,,Source,,DM_01.AR_DEATH_CE
DD_01,MER_DD,"[MG filter={ldm.DD.DDORRES !=''}]::[DD.PART_CL_DEATH_CE],[DD.PART_CL_DAR_CE]",Derived,,DD_01.MER_DD
DD_01,CL_DAR_CE,[TX]::[Source.AR_DAR_CE],Derived,,DD_01.CL_DAR_CE
DD_01,AR_DAR_CE,,Source,,DD_01.AR_DAR_CE
MH_01,CL_MH,[TX]::[Source.AR_MH],Derived,,MH_01.CL_MH
MH_01,AR_MH,,Source,,MH_01.AR_MH
MH_01,MER_MH,"[MG]::[MH.PART_MH],[MH.PART_MHP_MH],[MH.PART_PDIAG_MH],[MH.PART_CL_CDIHX_MH],[MH.PART_CL_MH_CDIHX_CF],[MH.PART_CL_CDIMC_MH],[MH.PART_CL_HOAB_MH],[MH.PART_CL_MH_UTA1_MH],[MH.PART_MH_IAA1_MH]",Derived,,MH_01.MER_MH
MH_01,CL_MHP_MH,[TX]::[Source.AR_MHP_MH],Derived,,MH_01.CL_MHP_MH
MH_01,AR_MHP_MH,,Source,,MH_01.AR_MHP_MH
MH_01,CL_PDIAG_MH,[TX]::[Source.AR_PDIAG_MH],Derived,,MH_01.CL_PDIAG_MH
MH_01,AR_PDIAG_MH,,Source,,MH_01.AR_PDIAG_MH
FA_01,FA_CL_AE,[TX]::[Source.AR_AE: filter={1=2}],Derived,,FA_01.FA_CL_AE
FA_01,MER_FA,"[MG filter={ldm.FA.FATESTCD != ''}]::[FA.PART_FA_CL_AE],[FA.PART_AEOST_CF],[FA.PART_COUGHS_EDT_FA],[FA.PART_FA_CL_PROC_PR],[FA.PART_SFF_CF],[FA.PART_FA_CL_SU],[FA.PART_SM_FA],[FA.PART_AE_CF],[FA.PART_SMAU_FA],[FA.PART_CL_MEAL_FA],[FA.PART_CL_SMAB_FA],[FA.PART_CL_RASH_CF],[FA.PART_VRCSC_FA],[FA.PART_CL_CDIB_CF],[FA.PART_CL_CDIHX_CF],[FA.PART_CL_DR_CF],[FA.PART_CL_RTP_CF],[FA.PART_CL_CMVA_CF],[FA.PART_CL_ADJF_EDT_CF],[FA.PART_CL_SI_CF],[FA.PART_CL_FV_CF],[FA.PART_CL_CMV_CF],[FA.PART_CL_HSCT_FA],[FA.PART_CL_PET2_CF],[FA.PART_CL_PET1_CF],[FA.PART_CL_PET2_CE],[FA.PART_RTO_FA],[FA.PART_CL_SCAN_CF],[FA.PART_CL_SCAN_PR],[FA.PART_CL_CRPA_CF],[FA.PART_CL_HOAB_FA],[FA.PART_FA_IAA1_CF],[FA.PART_FA_BISS1_CF],[FA.PART_FA_AR_PTR_CF],[FA.PART_VRCS_FA_TX],[FA.PART_VRCI_FA_TX],[FA.PART_FA_SMR_EX],[FA.PART_FA_LOA_CF],[FA.PART_FA_LACT_FF],[FA.PART_FA_SSP_CF],[FA.PART_CL_HA_CF],[FA.PART_SMLS_FA],[FA.PART_HOAT_FA],[FA.PART_HOAP_FA]",Derived,,FA_01.MER_FA
FA_01,CL_AEOST_CF,[TX]::[Source.AR_AEOST_CF],Derived,,FA_01.CL_AEOST_CF
FA_01,AR_AEOST_CF,,Source,,FA_01.AR_AEOST_CF
FA_01,CL_COUGHS_EDT_FA,[TX]::[Source.AR_COUGHS_EDT_FA],Derived,,FA_01.CL_COUGHS_EDT_FA
FA_01,AR_COUGHS_EDT_FA,,Source,,FA_01.AR_COUGHS_EDT_FA
FA_01,FA_CL_PROC_PR,[TX]::[Intermediate.FA_NOR_PROC_PR],Derived,,FA_01.FA_CL_PROC_PR
FA_01,FA_NOR_PROC_PR,"[NM]::[Source.AR_PROC_PR: items={Item1,Item2,Item3}]",Derived,,FA_01.FA_NOR_PROC_PR
FA_01,CL_SFF_CF,[TX]::[Source.AR_SFF_CF],Derived,,FA_01.CL_SFF_CF
FA_01,AR_SFF_CF,,Source,,FA_01.AR_SFF_CF
FA_01,FA_CL_SU,[TX]::[Intermediate.FA_NOR_SU],Derived,,FA_01.FA_CL_SU
FA_01,FA_NOR_SU,"[NM]::[Source.AR_SU: items={Item1,Item2,Item3}]",Derived,,FA_01.FA_NOR_SU
CM_01,CL_AR_CM,[TX]::[Source.AR_CM],Derived,,CM_01.CL_AR_CM
CM_01,AR_CM,,Source,,CM_01.AR_CM
ML_01,CL_PEDI1_SU,[TX]::[Source.AR_PEDI1_SU],Derived,,ML_01.CL_PEDI1_SU
ML_01,AR_PEDI1_SU,,Source,,ML_01.AR_PEDI1_SU
RP_01,CL_PRG01_PY,[TX filter={CL_PRG01_PY.RPORRES != ''}]::[Intermediate.JN_PRG01],Derived,,RP_01.CL_PRG01_PY
RP_01,AR_PRG01_PY,,Source,,RP_01.AR_PRG01_PY
APVS_01,AR_PRG02_FF,,Source,,APVS_01.AR_PRG02_FF
RP_01,CL_PRG02_PX,[TX filter={CL_PRG02_PX.RPTESTCD != ''}]::[Intermediate.PX_NOR_RP],Derived,,RP_01.CL_PRG02_PX
RP_01,AR_PRG02_PX,,Source,,RP_01.AR_PRG02_PX
RP_01,MER_RP,"[MG]::[RP.PART_PRG01_PY],[RP.PART_PRG02_PX],[RP.PART_CONTRA_RP],[RP.PART_RPSF_RP],[RP.PART_CL_SXA1_RP],[RP.PART_CL_SXHX_RP]",Derived,,RP_01.MER_RP
RP_01,PY_NOR_RP,"[NM]::[Source.AR_PRG01_PY: items={Item1,Item2}]",Derived,,RP_01.PY_NOR_RP
RP_01,PX_NOR_RP,"[NM]::[Source.AR_PRG02_PX: items={Item1,Item2,Item3,Item4}]",Derived,,RP_01.PX_NOR_RP
DA_01,CL_DISP_DA,[TX filter={ldm.DA.DAORRES != ''}]::[Source.AR_DISP_DA],Derived,,DA_01.CL_DISP_DA
DA_01,AR_DISP_DA,,Source,,DA_01.AR_DISP_DA
FA_01,CL_SM_FA,[TX]::[Intermediate.CL_NOR_SM_FA],Derived,,FA_01.CL_SM_FA
HO_01,CL_AE_HO,[TX]::[Source.AR_AE_HO],Derived,,HO_01.CL_AE_HO
HO_01,AR_AE_HO,,Source,,HO_01.AR_AE_HO
CO_01,CO_NOR_AE,"[NM]::[Source.AR_AE: items={Item1,Item2,Item3,Item4,Item5}]",Derived,,CO_01.CO_NOR_AE
CO_01,MER_CO,"[MG filter={ldm.CO.COVAL != ''}]::[CO.PART_CO_AE],[CO.PART_CO_AE_HO],[CO.PART_NOR_CO_COUGHS_FA],[CO.PART_CO_DAR_CE],[CO.PART_CO_PROC_PR],[CO.PART_CL_CO_HOSP_HO],[CO.PART_CL_CO_HSU1_HO],[CO.PART_CL_CO_CMVA_CF],[CO.PART_CL_CO_ADJE_EDT_CE],[CO.PART_CL_CO_ADJF_EDT_CF],[CO.PART_CL_CO_SCAN_CF],[CO.PART_CL_CO_SCAN_PR],[CO.PART_CO_AOS_PR],[CO.PART_CO_AR_SLEEP_EDT_NV],[CO.PART_CO_PRG02_PX]",Derived,,CO_01.MER_CO
CO_01,CL_CO_AE_HO,[TX]::[Source.AR_AE_HO],Derived,,CO_01.CL_CO_AE_HO
CO_01,CL_NOR_CO_COUGHS_FA,"[NM]::[Source.AR_COUGHS_EDT_FA: items={Item1,Item2,Item3,Item4,Item5}]",Derived,,CO_01.CL_NOR_CO_COUGHS_FA
CO_01,CL_CO_DAR_CE,[TX]::[Source.AR_DAR_CE],Derived,,CO_01.CL_CO_DAR_CE
CO_01,CL_CO_PROC_PR,[TX]::[Source.AR_PROC_PR],Derived,,CO_01.CL_CO_PROC_PR
FA_01,CL_AE_CF,[TX]::[Source.AR_AE_CF],Derived,,FA_01.CL_AE_CF
FA_01,AR_AE_CF,,Source,,FA_01.AR_AE_CF
DS_01,CL_DEATH_DS,[TX]::[Source.AR_DEATH_CE],Derived,,DS_01.CL_DEATH_DS
DM_01,AR_SA_SC,,Source,,DM_01.AR_SA_SC
DS_01,FBRC_NOR,"[NM]::[Source.AR_FBRC_ZE: items={Item1,Item2}]",Derived,,DS_01.FBRC_NOR
PC_01,CL_PK04_PC,[TX]::[Intermediate.PK04_JN_PKPC_EDT],Derived,,PC_01.CL_PK04_PC
PC_01,AR_PKPC_EDT_PC,,Source,,PC_01.AR_PKPC_EDT_PC
PC_01,AR_PK04_BS,,Source,,PC_01.AR_PK04_BS
PC_01,PRODEVCM,[TX]::[Source.AR_PK04_BS: filter={source.AR_PK04_BS.BSTESTCD = 'PRODEVCM'}],Derived,,PC_01.PRODEVCM
APAE_01,APAE_OUT,"[TX filter={APAE_OUT.APID !=''}]::[Intermediate.APAE_NOR_FE: filter={(source.AR_SAEI_FE.FETERM != ""HOSPITAL"" || source.AR_SAEI_FE.AUTCOMP = """" )}]",Derived,,APAE_01.APAE_OUT
APAE_01,AR_SAEI_FE,,Source,,APAE_01.AR_SAEI_FE
RELREC_01,AE_NOR_CM,"[NM]::[Intermediate.AE_SCAN_CM: items={Item1,Item2}]",Derived,,RELREC_01.AE_NOR_CM
RELREC_01,AE_SCAN_CM,[SC]::[Intermediate.AE_JN_CM: key={source.AR_AE.USUBJID}],Derived,,RELREC_01.AE_SCAN_CM
RELREC_01,AE_JN_CM,"[JN]::[Source.AR_AE: key={source.AR_AE.USUBJID, source.AR_AE.AESPID}]*,[Source.AR_CM: key={source.AR_CM.USUBJID, source.AR_CM.CMRELAE}]*",Derived,,RELREC_01.AE_JN_CM
RELREC_01,MER_RELREC,"[MG]::[RELREC.PART_REL_AE_CM],[RELREC.PART_REL_AE_FA],[RELREC.PART_REL_AE_DD],[RELREC.PART_REL_AE_DD1],[RELREC.PART_REL_AE_PR],[RELREC.PART_EC_EX],[RELREC.PART_EC_FA],[RELREC.PART_REL_AE_RASH_CF],[RELREC.PART_FACE_CE],[RELREC.PART_REL_AE_HO],[RELREC.PART_REL_ADJE_ADJF],[RELREC.PART_REL_CA_AE],[RELREC.PART_REL_CF_AE],[RELREC.PART_CE_NOR_DR_PR],[RELREC.PART_CF_NOR_DR_PR],[RELREC.PART_RTO_NOR_RELAEID],[RELREC.PART_RTO_NOR_RELGLAE],[RELREC.PART_RTO_NOR_RELGRAE],[RELREC.PART_RTO_NOR_RELPRID],[RELREC.PART_CDIB_NOR_CE_FA],[RELREC.PART_PET2_CE_CF],[RELREC.PART_RTP_NOR_MH],[RELREC.PART_HSCT_NOR],[RELREC.PART_MB_NOR_MS],[RELREC.PART_CM_NOR_PR],[RELREC.PART_RELCEAEA_HOAT],[RELREC.PART_RELCEAEC_HOAT],[RELREC.PART_RELCEAER_HOAT],[RELREC.PART_RELCECMA_HOAT],[RELREC.PART_RELCECMC_HOAT],[RELREC.PART_CFRELLB_HA_CF],[RELREC.PART_CFRELCM_HA_CF],[RELREC.PART_CFRELAE_HA_CF]",Derived,,RELREC_01.MER_RELREC
RELREC_01,AE_NOR_FA,"[NM]::[Intermediate.AE_SCAN_FA: items={Item1,Item2}]",Derived,,RELREC_01.AE_NOR_FA
RELREC_01,AE_SCAN_FA,[SC]::[Intermediate.AE_JN_FA: key={source.AR_AE.USUBJID}],Derived,,RELREC_01.AE_SCAN_FA
RELREC_01,AE_JN_FA,"[JN]::[Source.AR_AEOST_CF: key={source.AR_AEOST_CF.USUBJID, source.AR_AEOST_CF.RELCFAE}]*,[Source.AR_AE: key={source.AR_AE.USUBJID, source.AR_AE.AESPID}]*",Derived,,RELREC_01.AE_JN_FA
RELREC_01,AE_NOR_DD,"[NM]::[Intermediate.AE_SCAN_DD: items={Item1,Item2}]",Derived,,RELREC_01.AE_NOR_DD
RELREC_01,AE_SCAN_DD,[SC]::[Intermediate.AE_JN_DD: key={source.AR_AE.USUBJID}],Derived,,RELREC_01.AE_SCAN_DD
RELREC_01,AE_JN_DD,"[JN]::[Source.AR_AE: key={source.AR_AE.USUBJID, source.AR_AE.AESPID}]*,[Source.AR_DAR_CE: key={source.AR_DAR_CE.USUBJID, source.AR_DAR_CE.CERELAE}]*",Derived,,RELREC_01.AE_JN_DD
RELREC_01,AE_NOR_DD1,"[NM]::[Intermediate.AE_SCAN_DD1: items={Item1,Item2}]",Derived,,RELREC_01.AE_NOR_DD1
RELREC_01,AE_SCAN_DD1,[SC]::[Intermediate.AE_JN_DEATH: key={source.AR_AE.USUBJID}],Derived,,RELREC_01.AE_SCAN_DD1
RELREC_01,AE_JN_DEATH,"[JN]::[Source.AR_AE: key={source.AR_AE.USUBJID, source.AR_AE.AESPID}]*,[Source.AR_DEATH_CE: key={source.AR_DEATH_CE.USUBJID, source.AR_DEATH_CE.CERELAE}]*",Derived,,RELREC_01.AE_JN_DEATH
RELREC_01,AE_NOR_PR,"[NM]::[Intermediate.AE_SCAN_PR: items={Item1,Item2}]",Derived,,RELREC_01.AE_NOR_PR
RELREC_01,AE_SCAN_PR,[SC]::[Intermediate.AE_JN_PR: key={source.AR_AE.USUBJID}],Derived,,RELREC_01.AE_SCAN_PR
RELREC_01,AE_JN_PR,"[JN]::[Source.AR_PROC_PR: key={source.AR_PROC_PR.USUBJID, source.AR_PROC_PR.PRRELAE}]*,[Source.AR_AE: key={source.AR_AE.USUBJID, source.AR_AE.AESPID}]*",Derived,,RELREC_01.AE_JN_PR
APAE_01,APAE_NOR_FE,"[NM]::[Source.AR_SAEI_FE: items={Item1,Item2,Item3,Item4}]",Derived,,APAE_01.APAE_NOR_FE
APHO_01,APHO_OUT,[TX]::[Intermediate.NOR_APHO],Derived,,APHO_01.APHO_OUT
APHO_01,NOR_APHO,"[NM]::[Source.AR_SAEI_FE: items={Item1,Item2,Item3,Item4} filter={source.AR_SAEI_FE.FETERM = 'HOSPITAL'}]",Derived,,APHO_01.NOR_APHO
APDD_01,APDD_OUT,[TX]::[Intermediate.APDD_SAEI_FE],Derived,,APDD_01.APDD_OUT
APDD_01,APDD_SAEI_FE,[TX]::[Intermediate.DD_NOR_FE],Derived,,APDD_01.APDD_SAEI_FE
APDD_01,DD_NOR_FE,"[NM]::[Source.AR_SAEI_FE: items={Item1,Item2}]",Derived,,APDD_01.DD_NOR_FE
APVS_01,APVS_OUT,"[TX]::[Source.AR_PRG02_FF: filter={source.AR_PRG02_FF.FFTESTCD in (""WEIGHT"", ""BODLNGTH"", ""HDCIRC"")}]",Derived,,APVS_01.APVS_OUT
APFA_01,APFA_SAEI_FE,[TX]::[Intermediate.NOR_APFE],Derived,,APFA_01.APFA_SAEI_FE
APFA_01,NOR_APFE,"[NM]::[Source.AR_SAEI_FE: items={Item1,Item2,Item3,Item4}]",Derived,,APFA_01.NOR_APFE
APFA_01,MER_APFA,"[MG]::[APFA.PART_APFA_FE],[APFA.PART_APFA_FF],[APFA.PART_APFA_RTP_PF],[APFA.PART_APFA_RTP_CF],[APFA.PART_APFA_HSCT_FA],[APFA.PART_APFA_SAEP_FF]",Derived,,APFA_01.MER_APFA
APFA_01,APFA_SAEI_FF,[TX]::[Intermediate.NOR_APFF],Derived,,APFA_01.APFA_SAEI_FF
APFA_01,NOR_APFF,"[NM]::[Intermediate.FF_JN_FE: items={Item1,Item2,Item3,Item4}]",Derived,,APFA_01.NOR_APFF
APFA_01,FF_JN_FE,"[JN]::[Source.AR_SAEI_FE: key={source.AR_SAEI_FE.USUBJID, source.AR_SAEI_FE.FESPID}],[Source.AR_SAEI_FF]",Derived,,APFA_01.FF_JN_FE
APFA_01,AR_SAEI_FF,,Source,,APFA_01.AR_SAEI_FF
DS_01,REASON_JN,"[JN]::[Intermediate.FBRC_NOR: key={intermediate.FBRC_NOR.USUBJID}]*,[Intermediate.REASON: key={intermediate.REASON.UBJID}]",Derived,,DS_01.REASON_JN
DS_01,REASON,[TX]::[Source.AR_FBRC_ZE: filter={source.AR_FBRC_ZE.ZEREASON != ''}],Derived,,DS_01.REASON
PR_01,CL_HSCT_PR,[TX]::[Source.AR_HSCT_PR],Derived,,PR_01.CL_HSCT_PR
PR_01,AR_HSCT_PR,,Source,,PR_01.AR_HSCT_PR
RELREC_01,NOR_EC_EX,"[NM]::[Intermediate.AGG_EC_EX: items={Item1,Item2}]",Derived,,RELREC_01.NOR_EC_EX
RELREC_01,AGG_EC_EX,"[AG]::[Target.EX: key={ldm.EX.DOMAIN} filter={ldm.EX.EXGRPID  in ('SM','SMAU','SMAB','SMLS')}]^",Derived,,RELREC_01.AGG_EC_EX
RELREC_01,NOR_EC_FA,"[NM]::[Intermediate.AGG_EC_FA: items={Item1,Item2}]",Derived,,RELREC_01.NOR_EC_FA
RELREC_01,AGG_EC_FA,"[AG]::[Target.FA: key={ldm.FA.DOMAIN} filter={ldm.FA.FAGRPID in ('SM','SMAU','SMAB','SMLS')}]^",Derived,,RELREC_01.AGG_EC_FA
QS_01,CL_WPAISHP_EDT_QS,[TX]::[Intermediate.WPAISHP_JN_VER],Derived,,QS_01.CL_WPAISHP_EDT_QS
QS_01,AR_WPAISHP_EDT_QS,,Source,,QS_01.AR_WPAISHP_EDT_QS
EG_01,CL_LECG_EG,[TX]::[Source.AR_LECG_EG],Derived,,EG_01.CL_LECG_EG
EG_01,AR_LECG_EG,,Source,,EG_01.AR_LECG_EG
LB_01,CL_HLB_LB,[TX]::[Source.AR_HLB_LB],Derived,,LB_01.CL_HLB_LB
LB_01,AR_HLB_LB,,Source,,LB_01.AR_HLB_LB
LB_01,CL_CLB_LB,[TX]::[Source.AR_CLB_LB],Derived,,LB_01.CL_CLB_LB
LB_01,AR_CLB_LB,,Source,,LB_01.AR_CLB_LB
RP_01,CL_CONTRA_SO,[TX]::[Source.AR_CONTRA_SO],Derived,,RP_01.CL_CONTRA_SO
RP_01,AR_CONTRA_SO,,Source,,RP_01.AR_CONTRA_SO
RP_01,CL_RPSF_RP,[TX]::[Source.AR_RPSF_RP],Derived,,RP_01.CL_RPSF_RP
RP_01,AR_RPSF_RP,,Source,,RP_01.AR_RPSF_RP
CM_01,CL_CMES_CM,[TX]::[Source.AR_CMES_CM],Derived,,CM_01.CL_CMES_CM
CM_01,AR_CMES_CM,,Source,,CM_01.AR_CMES_CM
CM_01,MER_CM,"[MG]::[CM.PART_CMES_CM],[CM.PART_AR_CM],[CM.PART_CL_CDIHX_CM],[CM.PART_CL_CDIMC_CM]",Derived,,CM_01.MER_CM
EX_01,CL_AR_SMAU_EX,[TX]::[Source.AR_SMAU_EX],Derived,,EX_01.CL_AR_SMAU_EX
EX_01,AR_SMAU_EX,,Source,,EX_01.AR_SMAU_EX
EC_01,MER_EC,"[MG]::[EC.PART_CL_SM_EC],[EC.PART_CL_SMAU_EC],[EC.PART_CL_SMAB_EC],[EC.PART_EC_AR_SMR_EX],[EC.PART_SMLS_EC]",Derived,,EC_01.MER_EC
EC_01,CL_SMAU_EC,[TX]::[Source.AR_SMAU_EX],Derived,,EC_01.CL_SMAU_EC
FA_01,CL_NOR_SM_FA,"[NM]::[Source.AR_SM_EX: items={Item1,Item2}]",Derived,,FA_01.CL_NOR_SM_FA
LB_01,CL_ULB_LB,[TX]::[Source.AR_ULB_LB],Derived,,LB_01.CL_ULB_LB
LB_01,AR_ULB_LB,,Source,,LB_01.AR_ULB_LB
ML_01,CL_MEAL_ML,[TX]::[Source.AR_MEAL_ML],Derived,,ML_01.CL_MEAL_ML
FA_01,AR_MEAL_ML,,Source,,FA_01.AR_MEAL_ML
ML_01,MER_ML,"[MG]::[ML.PART_MEAL_ML],[ML.PART_PEDI1_SU],[ML.PART_CL_FV_ML]",Derived,,ML_01.MER_ML
FA_01,CL_AR_SMAU_FA,[TX]::[Intermediate.CM_NOR_SMAU_FA],Derived,,FA_01.CL_AR_SMAU_FA
FA_01,CM_NOR_SMAU_FA,"[NM]::[Source.AR_SMAU_EX: items={Item1,Item2,Item3,Item4,Item5,Item6}]",Derived,,FA_01.CM_NOR_SMAU_FA
FA_01,CL_AR_MEAL_FA,[TX]::[Intermediate.CL_NOR_MEAL_FA],Derived,,FA_01.CL_AR_MEAL_FA
FA_01,CL_NOR_MEAL_FA,"[NM]::[Source.AR_MEAL_ML: items={Item1,Item2,Item3,Item4,Item5,Item6,Item7,Item8,Item9}]",Derived,,FA_01.CL_NOR_MEAL_FA
QS_01,CL_EHP5_EDT_QS,[TX]::[Intermediate.TX_EHP5_JN],Derived,,QS_01.CL_EHP5_EDT_QS
QS_01,AR_EHP5_EDT_QS,,Source,,QS_01.AR_EHP5_EDT_QS
QS_01,CL_PGIM_EDT_QS,[TX]::[Intermediate.TX_PGIM_JN],Derived,,QS_01.CL_PGIM_EDT_QS
QS_01,AR_PGIM_EDT_QS,,Source,,QS_01.AR_PGIM_EDT_QS
QS_01,CL_PPDD_EDT_QS,[TX]::[Intermediate.TX_PPDD_JN],Derived,,QS_01.CL_PPDD_EDT_QS
QS_01,AR_PPDD_EDT_QS,,Source,,QS_01.AR_PPDD_EDT_QS
CE_01,CE_OUT,"[MG]::[CE.PART_CE_COUGH],[CE.PART_CE_RASH],[CE.PART_VRCSC_CE],[CE.PART_CL_CDIB_CE],[CE.PART_CL_DR_CE],[CE.PART_CL_RTO_CE],[CE.PART_CL_SOI_CE],[CE.PART_CL_ADJE_EDT_CE],[CE.PART_CL_CA_CE],[CE.PART_CL_SI_CE],[CE.PART_CL_RIA_CE],[CE.PART_CL_ABSI_CE],[CE.PART_CL_BISS1_CE],[CE.PART_CE_AR_SWA_CE],[CE.PART_VRCS_CE],[CE.PART_VRCI_CE],[CE.PART_CL_CE_CEA_CE],[CE.PART_CL_HA_CE],[CE.PART_CL_HOAP_CE],[CE.PART_CL_CE_HOAT_CE]",Derived,,CE_01.CE_OUT
CE_01,CE_TX_CF,[TX]::[Intermediate.LOC_SUM],Derived,,CE_01.CE_TX_CF
CE_01,CE_JN_CF,"[JN]::[Source.AR_RASH_CE: key={source.AR_RASH_CE.USUBJID, source.AR_RASH_CE.CESPID}]*,[Source.AR_RASH_CF: key={source.AR_RASH_CF.USUBJID, source.AR_RASH_CF.CFSPID}]",Derived,,CE_01.CE_JN_CF
CE_01,AR_RASH_CE,,Source,,CE_01.AR_RASH_CE
FA_01,AR_RASH_CF,,Source,,FA_01.AR_RASH_CF
EC_01,SM_TX,[TX]::[Source.AR_SM_EX],Derived,,EC_01.SM_TX
EC_01,CL_SMAB_EC,[TX]::[Source.AR_SMAB_EX],Derived,,EC_01.CL_SMAB_EC
FA_01,CL_SMAB_FA,[TX]::[Intermediate.CL_NOR_SMAB_FA],Derived,,FA_01.CL_SMAB_FA
FA_01,CL_NOR_SMAB_FA,"[NM]::[Source.AR_SMAB_EX: items={Item1,Item2,Item3,Item4,Item5,Item6}]",Derived,,FA_01.CL_NOR_SMAB_FA
MB_01,CL_MORI_EDT_MB,[TX]::[Source.AR_MORI_EDT_MB],Derived,,MB_01.CL_MORI_EDT_MB
MB_01,AR_MORI_EDT_MB,,Source,,MB_01.AR_MORI_EDT_MB
MB_01,MB_OUT,"[MG]::[MB.PART_CL_SLAB_MB],[MB.PART_CL_MORI_EDT_MB],[MB.PART_CL_LABS_EDT_MB],[MB.PART_OLB_LB],[MB.PART_CL_SP_MB],[MB.PART_CL_CMVL_MB],[MB.PART_CL_MCRO_MB],[MB.PART_CL_MOI_MB],[MB.PART_MB_MCRP_MB]",Derived,,MB_01.MB_OUT
BS_01,CL_PD_BS,[TX filter={ldm.BS.BSTESTCD !=  ''}]::[Source.AR_PD_BS: filter={1=2}],Derived,,BS_01.CL_PD_BS
BS_01,AR_PD_BS,,Source,,BS_01.AR_PD_BS
BS_01,MER_BS,"[MG]::[BS.PART_CL_SCI_BS],[BS.PART_CL_PD_BS],[BS.PART_CL_MSC_BS],[BS.PART_HIST_EDT_PH]",Derived,,BS_01.MER_BS
BE_01,CL_PD_BE,[TX]::[Source.AR_PD_BS: filter={source.AR_PD_BS.BSDTC != ''}],Derived,,BE_01.CL_PD_BE
FA_01,CL_RASH_CF,[TX]::[Source.AR_RASH_CF],Derived,,FA_01.CL_RASH_CF
MB_01,CL_LABS_EDT_MB,"[TX]::[Source.AR_LABS_EDT_LB: filter={source.AR_LABS_EDT_LB.LBTESTCD in ('CMVDNA','DENGV1VL','DENGV2VL','DENGV3VL','DENGV4VL','HCVVLD','HBDNA','HIVVLD', 'HIV1VLD','VZVDNA')}]",Derived,,MB_01.CL_LABS_EDT_MB
RELREC_01,AE_SCAN_RASH_CF,[SC]::[Intermediate.AE_JN_RASH_CF: key={source.AR_AE.USUBJID}],Derived,,RELREC_01.AE_SCAN_RASH_CF
RELREC_01,AE_JN_RASH_CF,"[JN]::[Source.AR_RASH_CF: key={source.AR_RASH_CF.USUBJID, source.AR_RASH_CF.CFRELAE}]*,[Source.AR_AE: key={source.AR_AE.USUBJID, source.AR_AE.AESPID}]*",Derived,,RELREC_01.AE_JN_RASH_CF
RELREC_01,AE_NOR_RASH_CF,"[NM]::[Intermediate.AE_SCAN_RASH_CF: items={Item1,Item2}]",Derived,,RELREC_01.AE_NOR_RASH_CF
PC_01,PK04_JN_PKPC_EDT,"[JN]::[Source.AR_PKPC_EDT_PC: key={source.AR_PKPC_EDT_PC.USUBJID, upcase(source.AR_PKPC_EDT_PC.PCREFID)}],[Intermediate.PK04_TX_JOIN: key={intermediate.PK04_TX_JOIN.UBJID, upcase(intermediate.PK04_TX_JOIN.REFID)} filter={source.AR_PK04_BS.BSTESTCD in('ANALYT1','ANALYT2','ANALYT3','ANALYT4','ANALYT5','ANALYT6','ANALYT7','ANALYT8','ANALYT9','ANALYT10','ANALYT','SPCLSTAT','SCOLSTAT','RSCLNSNT')}]",Derived,,PC_01.PK04_JN_PKPC_EDT
PC_01,PK04_TX_JOIN,[TX]::[Intermediate.PROT_JN_PK04],Derived,,PC_01.PK04_TX_JOIN
PC_01,PROT_JN_PK04,"[JN]::[Source.AR_PK04_BS: key={source.AR_PK04_BS.USUBJID, upcase(source.AR_PK04_BS.BSREFID), source.AR_PK04_BS.BSDTC}],[Intermediate.PRODEVCM: key={intermediate.PRODEVCM.UBJID, upcase(intermediate.PRODEVCM.REFID), intermediate.PRODEVCM.DTC}]",Derived,,PC_01.PROT_JN_PK04
PC_01,PK04_VOL,"[TX]::[Source.AR_PK04_BS: filter={source.AR_PK04_BS.BSTESTCD IN (""VOLUME"", ""CELLNUM"",""TOTVOLS"",""TOTWTS"")}]",Derived,,PC_01.PK04_VOL
PC_01,PK1_VOL,"[TX]::[Source.AR_PK1_BS: filter={source.AR_PK1_BS.BSTESTCD in (""VOLUME"", ""CELLNUM"", ""TOTVOLS"", ""TOTWTS"")}]",Derived,,PC_01.PK1_VOL
PC_01,AR_PK1_BS,,Source,,PC_01.AR_PK1_BS
PC_01,CL_PK1_PC,[TX]::[Intermediate.PK1_JN_PKPC_EDT],Derived,,PC_01.CL_PK1_PC
PC_01,PK1_JN_PKPC_EDT,"[JN]::[Source.AR_PKPC_EDT_PC: key={source.AR_PKPC_EDT_PC.USUBJID, upcase(source.AR_PKPC_EDT_PC.PCREFID)}],[Source.AR_PK1_BS: key={source.AR_PK1_BS.USUBJID, upcase(source.AR_PK1_BS.BSREFID)} filter={source.AR_PK1_BS.BSTESTCD in('ANALYT1','ANALYT2','ANALYT3','ANALYT4','ANALYT5','ANALYT6','ANALYT7','ANALYT8','ANALYT9','ANALYT10','ANALYT','SPCLSTAT','SCOLSTAT','RSCLNSNT')}]",Derived,,PC_01.PK1_JN_PKPC_EDT
PC_01,PC_OUT,"[MG]::[PC.PART_CL_PK04_PC],[PC.PART_CL_PK1_PC],[PC.PART_PK04_VOL],[PC.PART_PK1_VOL],[PC.PART_CL_PK05_PC],[PC.PART_PK05_VOL],[PC.PART_CL_PK2_PC],[PC.PART_PK2_VOL]",Derived,,PC_01.PC_OUT
QS_01,CL_ESS_QS,[TX]::[Intermediate.ESS_JN_VERSION],Derived,,QS_01.CL_ESS_QS
QS_01,AR_ESS_QS,,Source,,QS_01.AR_ESS_QS
QS_01,CL_FOSQ_QS,[TX]::[Intermediate.FOSO_JN_VER],Derived,,QS_01.CL_FOSQ_QS
QS_01,AR_FOSQ_QS,,Source,,QS_01.AR_FOSQ_QS
QS_01,CL_MSQ_QS,[TX]::[Intermediate.TSQ_JN_VER],Derived,,QS_01.CL_MSQ_QS
QS_01,AR_MSQ_QS,,Source,,QS_01.AR_MSQ_QS
CE_01,LOC_SUM,[TX]::[Intermediate.CELOC_TX_RASH],Derived,,CE_01.LOC_SUM
CE_01,CELOC_TX_RASH,[TX]::[Intermediate.CE_JN_CF],Derived,,CE_01.CELOC_TX_RASH
FA_01,VRCSC_TX,[TX]::[Source.AR_VRCSC_EDT_FA],Derived,,FA_01.VRCSC_TX
FA_01,AR_VRCSC_EDT_FA,,Source,,FA_01.AR_VRCSC_EDT_FA
CE_01,CE_SC_LOC,"[SC]::[Intermediate.CE_TX_FA: key={source.AR_VRCSC_EDT_FA.USUBJID, source.AR_VRCSC_EDT_FA.FADTC, source.AR_VRCSC_EDT_FA.FAOBJ, intermediate.CE_TX_FA.ORRES, source.AR_VRCSC_EDT_FA.FALOC, source.AR_VRCSC_EDT_FA.FALAT, source.AR_VRCSC_EDT_FA.FADIR}]",Derived,,CE_01.CE_SC_LOC
CE_01,CE_TX_FA,"[TX]::[Source.AR_VRCSC_EDT_FA: filter={((source.AR_VRCSC_EDT_FA.FATESTCD in (""OCCUR"", ""SEV"")) && source.AR_VRCSC_EDT_FA.FAORRES !="""" ||  (source.AR_VRCSC_EDT_FA.FATESTCD ==""OCCUR"" && source.AR_VRCSC_EDT_FA.FASTAT !="""" ) && source.AR_VRCSC_EDT_FA.STUDYID!=""""}]",Derived,,CE_01.CE_TX_FA
CE_01,LDIAM_JN_EPMAXNUM,"[JN]::[Intermediate.FINAL_AGG: key={source.AR_VRCSC_EDT_FA.USUBJID, source.AR_VRCSC_EDT_FA.VISIT, source.AR_VRCSC_EDT_FA.EPOCH, source.AR_VRCSC_EDT_FA.FAOBJ, source.AR_VRCSC_EDT_FA.FALOC, source.AR_VRCSC_EDT_FA.FALAT}]*,[Intermediate.LDIAM_AGG: key={intermediate.LDIAM_AGG.LSUBJID, intermediate.LDIAM_AGG.LVISIT, intermediate.LDIAM_AGG.POCH, intermediate.LDIAM_AGG.OBJ, intermediate.LDIAM_AGG.LOC, intermediate.LDIAM_AGG.LAT}]",Derived,,CE_01.LDIAM_JN_EPMAXNUM
CE_01,CE_AG_FACE,"[AG]::[Intermediate.CE_SC_FACE: key={source.AR_VRCSC_EDT_FA.USUBJID, source.AR_VRCSC_EDT_FA.FAOBJ, source.AR_VRCSC_EDT_FA.EPOCH, intermediate.CE_SC_FACE.CELOC, intermediate.CE_SC_FACE.CELAT, intermediate.CE_SC_FACE.CEDIR, intermediate.CE_TX_FA.ORRES}]",Derived,,CE_01.CE_AG_FACE
CE_01,CE_SC_FACE,"[SC]::[Intermediate.CE_AG_CE: key={source.AR_VRCSC_EDT_FA.USUBJID, source.AR_VRCSC_EDT_FA.FAOBJ, source.AR_VRCSC_EDT_FA.EPOCH, intermediate.CE_TX_FA.ORRES, Intermediate.CE_SC_LOC.CELOC, Intermediate.CE_SC_LOC.CELAT, Intermediate.CE_SC_LOC.CEDIR, source.AR_VRCSC_EDT_FA.FADTC*}]",Derived,,CE_01.CE_SC_FACE
CE_01,CE_AG_CE,"[AG]::[Intermediate.CE_SC_LOC: key={source.AR_VRCSC_EDT_FA.USUBJID, source.AR_VRCSC_EDT_FA.EPOCH, source.AR_VRCSC_EDT_FA.FAOBJ, source.AR_VRCSC_EDT_FA.FADTC, Intermediate.CE_SC_LOC.CELOC, Intermediate.CE_SC_LOC.CELAT, Intermediate.CE_SC_LOC.CEDIR, intermediate.CE_TX_FA.FILTER*}]",Derived,,CE_01.CE_AG_CE
RELREC_01,NOR_CE_FACE,"[NM]::[Intermediate.AGG_CE_FACE: items={Item1,Item2}]",Derived,,RELREC_01.NOR_CE_FACE
RELREC_01,AGG_CE_FACE,"[AG]::[Target.CE: key={ldm.CE.DOMAIN} filter={ldm.CE.CEGRPID in ('VRCSC_EDT','VRCSC','VRCS')}]",Derived,,RELREC_01.AGG_CE_FACE
MK_01,CL_DEXA_EDT_MK,[TX]::[Source.AR_DEXA_EDT_MK],Derived,,MK_01.CL_DEXA_EDT_MK
MK_01,AR_DEXA_EDT_MK,,Source,,MK_01.AR_DEXA_EDT_MK
MB_01,CL_OLB_LB,[TX]::[Source.AR_OLB_LB],Derived,,MB_01.CL_OLB_LB
MB_01,AR_OLB_LB,,Source,,MB_01.AR_OLB_LB
PF_01,CL_GTMT_EDT_PF,[TX]::[Source.AR_GTMT_EDT_PF],Derived,,PF_01.CL_GTMT_EDT_PF
PF_01,AR_GTMT_EDT_PF,,Source,,PF_01.AR_GTMT_EDT_PF
PF_01,PF_OUT,"[MG]::[PF.PART_CL_GTMT_EDT_PF],[PF.PART_RHHIV_PF]",Derived,,PF_01.PF_OUT
MS_01,CL_VRES_EDT_PF,[TX]::[Source.AR_VRES_EDT_PF],Derived,,MS_01.CL_VRES_EDT_PF
MS_01,AR_VRES_EDT_PF,,Source,,MS_01.AR_VRES_EDT_PF
MS_01,MS_OUT,"[MG]::[MS.PART_CL_VRES_EDT_PF],[MS.PART_CL_MORS_EDT_MS],[MS.PART_MS_MOI_MB],[MS.PART_CL_MOI_MS],[MS.PART_MS_MCRP_MB]",Derived,,MS_01.MS_OUT
QS_01,ESS_JN_VERSION,"[JN]::[Intermediate.TX_VERSION: key={source.AR_ESS_QS.USUBJID}]*,[Intermediate.ESS_VERSION: key={intermediate.ESS_VERSION.UBJID}]^",Derived,,QS_01.ESS_JN_VERSION
QS_01,TX_VERSION,[TX]::[Source.AR_ESS_QS: filter={upcase(source.AR_ESS_QS.QSTESTCD) != 'VERSION'}],Derived,,QS_01.TX_VERSION
QS_01,ESS_VERSION,[TX]::[Source.AR_ESS_QS: filter={upcase(source.AR_ESS_QS.QSTESTCD) = 'VERSION'}],Derived,,QS_01.ESS_VERSION
QS_01,FOSO_JN_VER,"[JN]::[Intermediate.TX_VERSION_FOSO: key={source.AR_FOSQ_QS.USUBJID}]*,[Intermediate.FOSO_VER: key={intermediate.FOSO_VER.UBJID}]^",Derived,,QS_01.FOSO_JN_VER
QS_01,TX_VERSION_FOSO,[TX]::[Source.AR_FOSQ_QS: filter={upcase(source.AR_FOSQ_QS.QSTESTCD) != 'VERSION'}],Derived,,QS_01.TX_VERSION_FOSO
QS_01,FOSO_VER,[TX]::[Source.AR_FOSQ_QS: filter={upcase(source.AR_FOSQ_QS.QSTESTCD) = 'VERSION'}],Derived,,QS_01.FOSO_VER
QS_01,TSQ_JN_VER,"[JN]::[Intermediate.TX_MSQ_QS: key={source.AR_MSQ_QS.USUBJID}]*,[Intermediate.TSQ_VER: key={intermediate.TSQ_VER.UBJID}]^",Derived,,QS_01.TSQ_JN_VER
QS_01,TX_MSQ_QS,[TX]::[Source.AR_MSQ_QS: filter={upcase(source.AR_MSQ_QS.QSTESTCD) != 'VERSION'}],Derived,,QS_01.TX_MSQ_QS
QS_01,TSQ_VER,[TX]::[Source.AR_MSQ_QS: filter={upcase(source.AR_MSQ_QS.QSTESTCD) = 'VERSION'}],Derived,,QS_01.TSQ_VER
QS_01,CL_PI_QS,[TX]::[Intermediate.TX_JN_VER1],Derived,,QS_01.CL_PI_QS
QS_01,TSQ_VER_PI,[TX]::[Source.AR_PI_QS: filter={upcase(source.AR_PI_QS.QSTESTCD) = 'VERSION'}],Derived,,QS_01.TSQ_VER_PI
QS_01,AR_PI_QS,,Source,,QS_01.AR_PI_QS
QS_01,TX_PI_QS,[TX]::[Source.AR_PI_QS: filter={upcase(source.AR_PI_QS.QSTESTCD) != 'VERSION'}],Derived,,QS_01.TX_PI_QS
NV_01,CL_HPTT_NV,[TX]::[Source.AR_HPTT_NV],Derived,,NV_01.CL_HPTT_NV
NV_01,AR_HPTT_NV,,Source,,NV_01.AR_HPTT_NV
NV_01,MER_NV,"[MG]::[NV.PART_CL_HPTT_NV],[NV.PART_CL_NE_PE],[NV.PART_CL_ERA_NV],[NV.PART_NV_AR_SLEEP_EDT_NV]",Derived,,NV_01.MER_NV
NV_01,CL_NE_PE,[TX]::[Source.AR_NE_PE],Derived,,NV_01.CL_NE_PE
NV_01,AR_NE_PE,,Source,,NV_01.AR_NE_PE
CV_01,CL_CAEV_CV,[TX]::[Source.AR_CAEV_CV],Derived,,CV_01.CL_CAEV_CV
CV_01,AR_CAEV_CV,,Source,,CV_01.AR_CAEV_CV
CV_01,MER_CV,"[MG]::[CV.PART_CL_CAEV_CV],[CV.PART_CL_CV_CCM_CV]",Derived,,CV_01.MER_CV
RE_01,CL_PFTL_VS,[TX]::[Source.AR_PFTL_VS],Derived,,RE_01.CL_PFTL_VS
RE_01,AR_PFTL_VS,,Source,,RE_01.AR_PFTL_VS
RE_01,RE_OUT,"[MG]::[RE.PART_CL_PFTL_VS],[RE.PART_CL_RE_PSF_PR],[RE.PART_CL_RE_PSF_CF],[RE.PART_CL_FRI_EDT_RE],[RE.PART_CL_IFMA_RE]",Derived,,RE_01.RE_OUT
PC_01,PK05_VOL,"[TX]::[Source.AR_PK05_BS: filter={source.AR_PK05_BS.BSTESTCD IN (""VOLUME"", ""CELLNUM"",""TOTVOLS"",""TOTWTS"")}]",Derived,,PC_01.PK05_VOL
PC_01,AR_PK05_BS,,Source,,PC_01.AR_PK05_BS
PC_01,PK05_JN_PKPC,"[JN]::[Intermediate.PK05_TX_JOIN: key={intermediate.PK05_TX_JOIN.UBJID, UPCASE(intermediate.PK05_TX_JOIN.REFID)} filter={source.AR_PK05_BS.BSTESTCD in ('ANALYT1','ANALYT2','ANALYT3','ANALYT4','ANALYT5','ANALYT6','ANALYT7','ANALYT8','ANALYT9','ANALYT10','ANALYT','SPCLSTAT','SCOLSTAT','RSCLNSNT')}],[Source.AR_PKPC_EDT_PC: key={source.AR_PKPC_EDT_PC.USUBJID, UPCASE(source.AR_PKPC_EDT_PC.PCREFID)}]",Derived,,PC_01.PK05_JN_PKPC
PC_01,PK05_TX_JOIN,[TX]::[Intermediate.PROT_JN_PK05],Derived,,PC_01.PK05_TX_JOIN
PC_01,PROT_JN_PK05,"[JN]::[Source.AR_PK05_BS: key={source.AR_PK05_BS.USUBJID, UPCASE(source.AR_PK05_BS.BSREFID), source.AR_PK05_BS.BSDTC}],[Intermediate.PRODDEV_PK05: key={intermediate.PRODDEV_PK05.UBJID, UPCASE(intermediate.PRODDEV_PK05.REFID), intermediate.PRODDEV_PK05.DTC}]",Derived,,PC_01.PROT_JN_PK05
PC_01,PRODDEV_PK05,[TX]::[Source.AR_PK05_BS: filter={source.AR_PK05_BS.BSTESTCD = 'PRODEVCM'}],Derived,,PC_01.PRODDEV_PK05
PC_01,CL_PK05_PC,[TX]::[Intermediate.PK05_JN_PKPC],Derived,,PC_01.CL_PK05_PC
FA_01,CL_CDIB_CF,[TX]::[Source.AR_CDIB_CF],Derived,,FA_01.CL_CDIB_CF
FA_01,AR_CDIB_CF,,Source,,FA_01.AR_CDIB_CF
QS_01,CL_MVAS_QS,[TX]::[Intermediate.JN_MVCS],Derived,,QS_01.CL_MVAS_QS
QS_01,AR_MVAS_QS,,Source,,QS_01.AR_MVAS_QS
CE_01,CL_CDIB_CE,[TX]::[Source.AR_CDIB_CE],Derived,,CE_01.CL_CDIB_CE
CE_01,AR_CDIB_CE,,Source,,CE_01.AR_CDIB_CE
QS_01,JN_MVCS,"[JN]::[Intermediate.TSQ_VER_RAT_MVAS: key={intermediate.TSQ_VER_RAT_MVAS.USUB}]^,[Intermediate.TX_MVAS_VER_QS: key={source.AR_MVAS_QS.USUBJID}]*",Derived,,QS_01.JN_MVCS
QS_01,TX_MVAS_VER_QS,"[TX]::[Source.AR_MVAS_QS: filter={upcase (source.AR_MVAS_QS.QSTESTCD) not in ('VERSION', 'RATER')}]",Derived,,QS_01.TX_MVAS_VER_QS
QS_01,TSQ_VER_RAT_MVAS,"[TX]::[Source.AR_MVAS_QS: filter={source.AR_MVAS_QS.QSTESTCD IN (""VERSION"", ""RATER"")}]",Derived,,QS_01.TSQ_VER_RAT_MVAS
QS_01,CL_CSSHX_QS,[TX]::[Intermediate.TX_CSSHX_JN_VER1],Derived,,QS_01.CL_CSSHX_QS
QS_01,TSQ_VER_CSSHX,"[TX]::[Source.AR_CSSHX_QS: filter={upcase(source.AR_CSSHX_QS.QSTESTCD) in( 'VERSION','RATER')}]",Derived,,QS_01.TSQ_VER_CSSHX
QS_01,AR_CSSHX_QS,,Source,,QS_01.AR_CSSHX_QS
QS_01,TX_CSSHX_QS,"[TX]::[Source.AR_CSSHX_QS: filter={upcase(source.AR_CSSHX_QS.QSTESTCD) not in( 'VERSION','RATER')}]",Derived,,QS_01.TX_CSSHX_QS
QS_01,CL_CSSLA_QS,[TX]::[Intermediate.TX_CSSLA_JN1],Derived,,QS_01.CL_CSSLA_QS
QS_01,TSQ_VER_CSSLA,"[TX]::[Source.AR_CSSLA_QS: filter={upcase(source.AR_CSSLA_QS.QSTESTCD) in( 'VERSION','RATER')}]",Derived,,QS_01.TSQ_VER_CSSLA
QS_01,AR_CSSLA_QS,,Source,,QS_01.AR_CSSLA_QS
QS_01,TX_CSSLA_QS,[TX]::[Intermediate.TX_RATER_QS: filter={upcase(source.AR_CSSLA_QS.QSTESTCD) != 'VERSION'}],Derived,,QS_01.TX_CSSLA_QS
QS_01,TX_EHP5_JN,"[JN]::[Intermediate.TX_VER_EHP5: key={intermediate.TX_VER_EHP5.USUB}]^,[Intermediate.TX_EHP5_QS: key={source.AR_EHP5_EDT_QS.USUBJID}]*",Derived,,QS_01.TX_EHP5_JN
QS_01,TX_VER_EHP5,[TX]::[Source.AR_EHP5_EDT_QS: filter={upcase(source.AR_EHP5_EDT_QS.QSTESTCD) = 'VERSION'}],Derived,,QS_01.TX_VER_EHP5
QS_01,TX_EHP5_QS,[TX]::[Source.AR_EHP5_EDT_QS: filter={upcase(source.AR_EHP5_EDT_QS.QSTESTCD) != 'VERSION'}],Derived,,QS_01.TX_EHP5_QS
QS_01,TX_PGIM_JN,"[JN]::[Intermediate.TX_VER_PGIM: key={intermediate.TX_VER_PGIM.USUB}]^,[Intermediate.TX_PGIM_QS: key={source.AR_PGIM_EDT_QS.USUBJID}]*",Derived,,QS_01.TX_PGIM_JN
QS_01,TX_VER_PGIM,[TX]::[Source.AR_PGIM_EDT_QS: filter={upcase(source.AR_PGIM_EDT_QS.QSTESTCD) = 'VERSION'}],Derived,,QS_01.TX_VER_PGIM
QS_01,TX_PGIM_QS,[TX]::[Source.AR_PGIM_EDT_QS: filter={upcase(source.AR_PGIM_EDT_QS.QSTESTCD) != 'VERSION'}],Derived,,QS_01.TX_PGIM_QS
QS_01,TX_PPDD_JN,"[JN]::[Intermediate.TX_VER_PPDD: key={intermediate.TX_VER_PPDD.USUB}]^,[Intermediate.TX_PPDD_QS: key={source.AR_PPDD_EDT_QS.USUBJID}]*",Derived,,QS_01.TX_PPDD_JN
QS_01,TX_VER_PPDD,[TX]::[Source.AR_PPDD_EDT_QS: filter={upcase(source.AR_PPDD_EDT_QS.QSTESTCD) = 'VERSION'}],Derived,,QS_01.TX_VER_PPDD
QS_01,TX_PPDD_QS,[TX]::[Source.AR_PPDD_EDT_QS: filter={upcase(source.AR_PPDD_EDT_QS.QSTESTCD) != 'VERSION'}],Derived,,QS_01.TX_PPDD_QS
PR_01,CL_CDIHX_PR,[TX]::[Source.AR_CDIHX_PR],Derived,,PR_01.CL_CDIHX_PR
PR_01,AR_CDIHX_PR,,Source,,PR_01.AR_CDIHX_PR
MH_01,CL_CDIHX_MH,[TX]::[Source.AR_CDIHX_MH],Derived,,MH_01.CL_CDIHX_MH
MH_01,AR_CDIHX_MH,,Source,,MH_01.AR_CDIHX_MH
CM_01,CL_CDIHX_CM,[TX]::[Source.AR_CDIHX_CM],Derived,,CM_01.CL_CDIHX_CM
CM_01,AR_CDIHX_CM,,Source,,CM_01.AR_CDIHX_CM
FA_01,CL_CDIHX_CF,[TX]::[Source.AR_CDIHX_CF],Derived,,FA_01.CL_CDIHX_CF
FA_01,AR_CDIHX_CF,,Source,,FA_01.AR_CDIHX_CF
MH_01,CL_MH_CDIHX_CF,[TX]::[Source.AR_CDIHX_CF],Derived,,MH_01.CL_MH_CDIHX_CF
FA_01,CL_DR_CF,[TX]::[Source.AR_DR_CF],Derived,,FA_01.CL_DR_CF
FA_01,AR_DR_CF,,Source,,FA_01.AR_DR_CF
CE_01,CL_DR_CE,[TX]::[Source.AR_DR_CE],Derived,,CE_01.CL_DR_CE
CE_01,AR_DR_CE,,Source,,CE_01.AR_DR_CE
HO_01,CL_HOSP_HO,[TX]::[Source.AR_HOSP_HO],Derived,,HO_01.CL_HOSP_HO
HO_01,AR_HOSP_HO,,Source,,HO_01.AR_HOSP_HO
HO_01,HO_MER,"[MG]::[HO.PART_CL_HOSP_HO],[HO.PART_CL_AE_HO],[HO.PART_CL_HSU1_HO]",Derived,,HO_01.HO_MER
CO_01,CL_CO_HOSP_HO,[TX]::[Source.AR_HOSP_HO],Derived,,CO_01.CL_CO_HOSP_HO
MH_01,CL_CDIMC_MH,[TX]::[Source.AR_CDIMC_MH],Derived,,MH_01.CL_CDIMC_MH
MH_01,AR_CDIMC_MH,,Source,,MH_01.AR_CDIMC_MH
CM_01,CL_CDIMC_CM,[TX]::[Source.AR_CDIMC_CM],Derived,,CM_01.CL_CDIMC_CM
CM_01,AR_CDIMC_CM,,Source,,CM_01.AR_CDIMC_CM
MB_01,CL_SP_MB,[TX]::[Source.AR_SP_MB],Derived,,MB_01.CL_SP_MB
MB_01,AR_SP_MB,,Source,,MB_01.AR_SP_MB
HO_01,CL_HSU1_HO,[TX]::[Source.AR_HSU1_HO],Derived,,HO_01.CL_HSU1_HO
HO_01,AR_HSU1_HO,,Source,,HO_01.AR_HSU1_HO
CO_01,CL_CO_HSU1_HO,[TX]::[Source.AR_HSU1_HO],Derived,,CO_01.CL_CO_HSU1_HO
RS_01,CL_IR_CF,[TX]::[Source.AR_IR_CF],Derived,,RS_01.CL_IR_CF
RS_01,AR_IR_CF,,Source,,RS_01.AR_IR_CF
RS_01,RS_MER,"[MG]::[RS.PART_CL_IR_CF],[RS.PART_CL_RS_PTR_CF]",Derived,,RS_01.RS_MER
MS_01,CL_MORS_EDT_MS,[TX]::[Source.AR_MORS_EDT_MS],Derived,,MS_01.CL_MORS_EDT_MS
MS_01,AR_MORS_EDT_MS,,Source,,MS_01.AR_MORS_EDT_MS
CC_01,CL_CPS_CF,[TX]::[Intermediate.TX_JN_VER_CPS],Derived,,CC_01.CL_CPS_CF
CC_01,AR_CPS_CF,,Source,,CC_01.AR_CPS_CF
CC_01,MER_CC,"[MG]::[CC.PART_CL_CPS_CF],[CC.PART_CL_APC2_QS],[CC.PART_CC_CPIS_QS],[CC.PART_CL_TSF_CC],[CC.PART_CL_TSM_CC]",Derived,,CC_01.MER_CC
FA_01,CL_RTP_CF,[TX]::[Source.AR_RTP_CF: filter={((source.AR_RTP_CF.CFSCAT!= 'DONOR') && (source.AR_RTP_CF.CFTESTCD!= 'DONORTYP'))}],Derived,,FA_01.CL_RTP_CF
FA_01,AR_RTP_CF,,Source,,FA_01.AR_RTP_CF
PR_01,CL_RTP_PR,[TX]::[Source.AR_RTP_PR],Derived,,PR_01.CL_RTP_PR
PR_01,AR_RTP_PR,,Source,,PR_01.AR_RTP_PR
QS_01,TX_CSSHX_JN_VER1,"[JN]::[Intermediate.TX_CSSHX_QS: key={source.AR_CSSHX_QS.USUBJID}]*,[Intermediate.TSQ_VER_CSSHX: key={intermediate.TSQ_VER_CSSHX.USUB}]^",Derived,,QS_01.TX_CSSHX_JN_VER1
QS_01,TX_CSSLA_JN1,"[JN]::[Intermediate.TX_CSSLA_QS: key={source.AR_CSSLA_QS.USUBJID}]*,[Intermediate.TSQ_VER_CSSLA: key={intermediate.TSQ_VER_CSSLA.USUB}]^",Derived,,QS_01.TX_CSSLA_JN1
CE_01,CL_RTO_CE,[TX]::[Source.AR_RTO_CE],Derived,,CE_01.CL_RTO_CE
CE_01,AR_RTO_CE,,Source,,CE_01.AR_RTO_CE
FA_01,CL_CMVA_CF,[TX]::[Intermediate.CL_NOR_CMVA_CF],Derived,,FA_01.CL_CMVA_CF
FA_01,CL_NOR_CMVA_CF,"[NM]::[Source.AR_CMVA_CF: items={Item1,Item2}]",Derived,,FA_01.CL_NOR_CMVA_CF
FA_01,AR_CMVA_CF,,Source,,FA_01.AR_CMVA_CF
CO_01,CL_CO_CMVA_CF,[TX]::[Source.AR_CMVA_CF],Derived,,CO_01.CL_CO_CMVA_CF
QS_01,CL_SF36E_EDT_QS,[TX]::[Intermediate.TX_SF36E_EDT_JN],Derived,,QS_01.CL_SF36E_EDT_QS
QS_01,TX_SF36E_EDT_JN,"[JN]::[Intermediate.TX_SF36E_EDT_QS: key={source.AR_SF36E_EDT_QS.USUBJID, source.AR_SF36E_EDT_QS.QSDTC}]*,[Intermediate.TSQ_VER_SF36E_EDT: key={intermediate.TSQ_VER_SF36E_EDT.USUB, intermediate.TSQ_VER_SF36E_EDT.DTC}]",Derived,,QS_01.TX_SF36E_EDT_JN
QS_01,TX_SF36E_EDT_QS,[TX]::[Source.AR_SF36E_EDT_QS: filter={upcase(source.AR_SF36E_EDT_QS.QSTESTCD) != 'VERSION'}],Derived,,QS_01.TX_SF36E_EDT_QS
QS_01,AR_SF36E_EDT_QS,,Source,,QS_01.AR_SF36E_EDT_QS
QS_01,TSQ_VER_SF36E_EDT,[TX]::[Source.AR_SF36E_EDT_QS: filter={upcase(source.AR_SF36E_EDT_QS.QSTESTCD) = 'VERSION'}],Derived,,QS_01.TSQ_VER_SF36E_EDT
RELREC_01,AE_NOR_HOSP,"[NM]::[Intermediate.AE_SCAN_HOSP: items={Item1,Item2}]",Derived,,RELREC_01.AE_NOR_HOSP
RELREC_01,AE_SCAN_HOSP,[SC]::[Intermediate.HOSH_AE_JN_HOSP: key={source.AR_HOSP_HO.USUBJID}],Derived,,RELREC_01.AE_SCAN_HOSP
RELREC_01,HOSH_AE_JN_HOSP,"[JN]::[Source.AR_HOSP_HO: key={source.AR_HOSP_HO.USUBJID, source.AR_HOSP_HO.HORELAE}]*,[Source.AR_AE: key={source.AR_AE.USUBJID, source.AR_AE.AESPID}]*",Derived,,RELREC_01.HOSH_AE_JN_HOSP
CE_01,CL_SOI_CE,[TX]::[Source.AR_SOI_CE],Derived,,CE_01.CL_SOI_CE
CE_01,AR_SOI_CE,,Source,,CE_01.AR_SOI_CE
QS_01,TX_JN_CSD_EDT,"[JN]::[Intermediate.TX_CSD_EDT: key={source.AR_CSD_EDT_QS.USUBJID}]*,[Intermediate.TX_VER_CSD_EDT: key={intermediate.TX_VER_CSD_EDT.USUB}]^",Derived,,QS_01.TX_JN_CSD_EDT
QS_01,TX_CSD_EDT,[TX]::[Source.AR_CSD_EDT_QS: filter={upcase( source.AR_CSD_EDT_QS.QSTESTCD) != 'VERSION'}],Derived,,QS_01.TX_CSD_EDT
QS_01,TX_VER_CSD_EDT,[TX]::[Source.AR_CSD_EDT_QS: filter={upcase( source.AR_CSD_EDT_QS.QSTESTCD) = 'VERSION'}],Derived,,QS_01.TX_VER_CSD_EDT
QS_01,TX_JN_CSVAS_EDT,"[JN]::[Intermediate.TX_CSVAS_EDT: key={source.AR_CSVAS_EDT_QS.USUBJID}]*,[Intermediate.TX_VER_CSVAS_EDT: key={intermediate.TX_VER_CSVAS_EDT.USUB}]^",Derived,,QS_01.TX_JN_CSVAS_EDT
QS_01,TX_CSVAS_EDT,[TX]::[Source.AR_CSVAS_EDT_QS: filter={upcase(source.AR_CSVAS_EDT_QS.QSTESTCD) != 'VERSION'}],Derived,,QS_01.TX_CSVAS_EDT
QS_01,TX_VER_CSVAS_EDT,[TX]::[Source.AR_CSVAS_EDT_QS: filter={upcase(source.AR_CSVAS_EDT_QS.QSTESTCD) = 'VERSION'}],Derived,,QS_01.TX_VER_CSVAS_EDT
QS_01,TX_JN_EQ5D5_EDT,"[JN]::[Intermediate.TX_EQ5D5_EDT: key={source.AR_EQ5D5_EDT_QS.USUBJID}]*,[Intermediate.TX_VER_EQ5D5_EDT: key={intermediate.TX_VER_EQ5D5_EDT.USUB}]^",Derived,,QS_01.TX_JN_EQ5D5_EDT
QS_01,TX_EQ5D5_EDT,[TX]::[Source.AR_EQ5D5_EDT_QS: filter={upcase(source.AR_EQ5D5_EDT_QS.QSTESTCD) != 'VERSION'}],Derived,,QS_01.TX_EQ5D5_EDT
QS_01,TX_VER_EQ5D5_EDT,[TX]::[Source.AR_EQ5D5_EDT_QS: filter={upcase(source.AR_EQ5D5_EDT_QS.QSTESTCD) = 'VERSION'}],Derived,,QS_01.TX_VER_EQ5D5_EDT
QS_01,TX_JN_HARQ_EDT,"[JN]::[Intermediate.TX_HARQ_EDT: key={source.AR_HARQ_EDT_QS.USUBJID}]*,[Intermediate.TX_VER_HARQ_EDT: key={intermediate.TX_VER_HARQ_EDT.USUB}]^",Derived,,QS_01.TX_JN_HARQ_EDT
QS_01,TX_HARQ_EDT,[TX]::[Source.AR_HARQ_EDT_QS: filter={upcase(source.AR_HARQ_EDT_QS.QSTESTCD) != 'VERSION'}],Derived,,QS_01.TX_HARQ_EDT
QS_01,TX_VER_HARQ_EDT,[TX]::[Source.AR_HARQ_EDT_QS: filter={upcase(source.AR_HARQ_EDT_QS.QSTESTCD) = 'VERSION'}],Derived,,QS_01.TX_VER_HARQ_EDT
QS_01,TX_JN_PGI_EDT,"[JN]::[Intermediate.TX_PGI_EDT_QS: key={source.AR_PGI_EDT_QS.USUBJID}]*,[Intermediate.TX_VER_PGI_EDT_QS: key={intermediate.TX_VER_PGI_EDT_QS.USUB}]^",Derived,,QS_01.TX_JN_PGI_EDT
QS_01,TX_PGI_EDT_QS,[TX filter={upcase(source.AR_PGI_EDT_QS.QSTESTCD) != 'VERSION'}]::[Source.AR_PGI_EDT_QS],Derived,,QS_01.TX_PGI_EDT_QS
QS_01,TX_VER_PGI_EDT_QS,[TX filter={upcase(source.AR_PGI_EDT_QS.QSTESTCD) = 'VERSION'}]::[Source.AR_PGI_EDT_QS],Derived,,QS_01.TX_VER_PGI_EDT_QS
QS_01,TX_JN_SF12E,"[JN]::[Intermediate.TX_SF12E_EDT_QS: key={source.AR_SF12E_EDT_QS.USUBJID}]*,[Intermediate.TX_VER_SF12E: key={intermediate.TX_VER_SF12E.USUB}]^",Derived,,QS_01.TX_JN_SF12E
QS_01,TX_SF12E_EDT_QS,[TX filter={upcase(source.AR_SF12E_EDT_QS.QSTESTCD) != 'VERSION'}]::[Source.AR_SF12E_EDT_QS],Derived,,QS_01.TX_SF12E_EDT_QS
QS_01,TX_VER_SF12E,[TX filter={upcase(source.AR_SF12E_EDT_QS.QSTESTCD) = 'VERSION'}]::[Source.AR_SF12E_EDT_QS],Derived,,QS_01.TX_VER_SF12E
QS_01,WPAISHP_JN_VER,"[JN]::[Intermediate.TX_WPAISHP_EDT_QS: key={source.AR_WPAISHP_EDT_QS.USUBJID}]*,[Intermediate.TX_VER_WPAISHAP: key={intermediate.TX_VER_WPAISHAP.USUB}]^",Derived,,QS_01.WPAISHP_JN_VER
QS_01,TX_WPAISHP_EDT_QS,[TX]::[Source.AR_WPAISHP_EDT_QS: filter={upcase(source.AR_WPAISHP_EDT_QS.QSTESTCD) != 'VERSION'}],Derived,,QS_01.TX_WPAISHP_EDT_QS
QS_01,TX_VER_WPAISHAP,[TX]::[Source.AR_WPAISHP_EDT_QS: filter={upcase(source.AR_WPAISHP_EDT_QS.QSTESTCD) = 'VERSION'}],Derived,,QS_01.TX_VER_WPAISHAP
QS_01,TX_RATER_QS,[TX]::[Source.AR_CSSLA_QS: filter={upcase(source.AR_CSSLA_QS.QSTESTCD) != 'RATER'}],Derived,,QS_01.TX_RATER_QS
CE_01,CL_ADJE_EDT_CE,[TX]::[Source.AR_ADJE_EDT_CE],Derived,,CE_01.CL_ADJE_EDT_CE
CE_01,AR_ADJE_EDT_CE,,Source,,CE_01.AR_ADJE_EDT_CE
FA_01,CL_ADJF_EDT_CF,[TX]::[Source.AR_ADJF_EDT_CF],Derived,,FA_01.CL_ADJF_EDT_CF
FA_01,AR_ADJF_EDT_CF,,Source,,FA_01.AR_ADJF_EDT_CF
CO_01,CL_CO_ADJE_EDT_CE,[TX]::[Source.AR_ADJE_EDT_CE],Derived,,CO_01.CL_CO_ADJE_EDT_CE
CO_01,CL_CO_ADJF_EDT_CF,[TX]::[Source.AR_ADJF_EDT_CF],Derived,,CO_01.CL_CO_ADJF_EDT_CF
RELREC_01,ADJE_NOR_ADJF,"[NM]::[Intermediate.ADJE_SCAN_ADJF: items={Item1,Item2}]",Derived,,RELREC_01.ADJE_NOR_ADJF
RELREC_01,ADJE_SCAN_ADJF,[SC]::[Intermediate.ADJE_JN_ADJF: key={source.AR_ADJF_EDT_CF.USUBJID}],Derived,,RELREC_01.ADJE_SCAN_ADJF
RELREC_01,ADJE_JN_ADJF,"[JN]::[Source.AR_ADJF_EDT_CF: key={source.AR_ADJF_EDT_CF.USUBJID, source.AR_ADJF_EDT_CF.CFLNKID}]*,[Source.AR_ADJE_EDT_CE: key={source.AR_ADJE_EDT_CE.USUBJID, source.AR_ADJE_EDT_CE.CELNKID}]*",Derived,,RELREC_01.ADJE_JN_ADJF
CE_01,CL_CA_CE,[TX]::[Source.AR_CA_CE],Derived,,CE_01.CL_CA_CE
CE_01,AR_CA_CE,,Source,,CE_01.AR_CA_CE
VS_01,CL_CA_VS,[TX]::[Source.AR_CA_VS],Derived,,VS_01.CL_CA_VS
VS_01,AR_CA_VS,,Source,,VS_01.AR_CA_VS
RELREC_01,CA_NOR_AE,"[NM]::[Intermediate.VS_SCAN_AE: items={Item1,Item2}]",Derived,,RELREC_01.CA_NOR_AE
RELREC_01,VS_SCAN_AE,[SC]::[Intermediate.VS_AE_JN: key={source.AR_CA_VS.USUBJID}],Derived,,RELREC_01.VS_SCAN_AE
RELREC_01,VS_AE_JN,"[JN]::[Source.AR_CA_VS: key={source.AR_CA_VS.USUBJID, source.AR_CA_VS.VSRELAE}]*,[Source.AR_AE: key={source.AR_AE.USUBJID, source.AR_AE.AESPID}]*",Derived,,RELREC_01.VS_AE_JN
NV_01,CL_ERA_NV,[TX]::[Source.AR_ERA_NV],Derived,,NV_01.CL_ERA_NV
NV_01,AR_ERA_NV,,Source,,NV_01.AR_ERA_NV
CE_01,CL_SI_CE,[TX]::[Source.AR_SI_CE],Derived,,CE_01.CL_SI_CE
CE_01,AR_SI_CE,,Source,,CE_01.AR_SI_CE
FA_01,CL_SI_CF,[TX]::[Source.AR_SI_CF],Derived,,FA_01.CL_SI_CF
FA_01,AR_SI_CF,,Source,,FA_01.AR_SI_CF
PR_01,CL_SI_PR,[TX]::[Source.AR_SI_PR],Derived,,PR_01.CL_SI_PR
PR_01,AR_SI_PR,,Source,,PR_01.AR_SI_PR
RELREC_01,CDIB_CE_FA,"[JN]::[Source.AR_CDIB_CE: key={source.AR_CDIB_CE.USUBJID, source.AR_CDIB_CE.CERELCF}]*,[Source.AR_PROC_PR: key={source.AR_PROC_PR.USUBJID, source.AR_PROC_PR.PRSPID}]*",Derived,,RELREC_01.CDIB_CE_FA
APDM_01,AR_PH_FF,,Source,,APDM_01.AR_PH_FF
APDM_01,CL_PH_APDM_OUT,[TX]::[Intermediate.CL_RACE_NONRACE],Derived,,APDM_01.CL_PH_APDM_OUT
APDM_01,CL_RACE_NONRACE,"[JN]::[Intermediate.CL_APDM_PH_FF: key={source.AR_PH_FF.USUBJID}]*^,[Intermediate.CL_NONRACE: key={intermediate.CL_NONRACE.USUB}]^",Derived,,APDM_01.CL_RACE_NONRACE
APDM_01,CL_APDM_PH_FF,"[TX]::[Source.AR_PH_FF: filter={source.AR_PH_FF.FFTESTCD in ('PRNT1RAC', 'PRNT2RAC')}]",Derived,,APDM_01.CL_APDM_PH_FF
APDM_01,CL_NONRACE,"[TX]::[Source.AR_PH_FF: filter={source.AR_PH_FF.FFTESTCD in ('PNT1RACA', 'PNT2RACA', 'PNT1CAI', 'PNT2CAI', 'PNT1BAA', 'PNT2BAA', 'PNT1NH', 'PNT2NH', 'PNT1WHT', 'PNT2WHT', 'PNT1ASN', 'PNT2ASN')}]",Derived,,APDM_01.CL_NONRACE
APDM_01,MER_APDM,"[MG]::[APDM.PART_PH_APDM],[APDM.PART_APDM_LACT_FE]",Derived,,APDM_01.MER_APDM
CC_01,TX_JN_VER_CPS,"[JN]::[Intermediate.TX_CPS_CF: key={source.AR_CPS_CF.USUBJID, source.AR_CPS_CF.CFDTC}]*,[Intermediate.TX_VER_CPS_CF: key={intermediate.TX_VER_CPS_CF.USUB, intermediate.TX_VER_CPS_CF.DTC}]",Derived,,CC_01.TX_JN_VER_CPS
CC_01,TX_CPS_CF,"[TX]::[Source.AR_CPS_CF: filter={upcase( source.AR_CPS_CF.CFTESTCD) in (""CPS0102"", ""CPS0101"", ""CPS0103"", ""CPS0104"", ""CPS0105A"", ""CPS0105B"", ""CPS0106"", ""CPS0107"")}]",Derived,,CC_01.TX_CPS_CF
CC_01,TX_VER_CPS_CF,[TX]::[Source.AR_CPS_CF: filter={upcase( source.AR_CPS_CF.CFTESTCD) = 'VERSION'}],Derived,,CC_01.TX_VER_CPS_CF
MB_01,CL_CMVL_MB,[TX]::[Source.AR_CMVL_MB],Derived,,MB_01.CL_CMVL_MB
MB_01,AR_CMVL_MB,,Source,,MB_01.AR_CMVL_MB
FA_01,CL_FV_CF,[TX]::[Source.AR_FV_CF],Derived,,FA_01.CL_FV_CF
FA_01,AR_FV_CF,,Source,,FA_01.AR_FV_CF
ML_01,CL_FV_ML,[TX]::[Source.AR_FV_ML],Derived,,ML_01.CL_FV_ML
ML_01,AR_FV_ML,,Source,,ML_01.AR_FV_ML
FA_01,CL_CMV_CF,[TX]::[Source.AR_CMV_CF],Derived,,FA_01.CL_CMV_CF
FA_01,AR_CMV_CF,,Source,,FA_01.AR_CMV_CF
FA_01,CL_PET2_CF,[TX]::[Source.AR_PET2_CF: filter={source.AR_PET2_CF.CFORRES !=''}],Derived,,FA_01.CL_PET2_CF
FA_01,AR_PET2_CF,,Source,,FA_01.AR_PET2_CF
FA_01,CL_HSCT_FA,"[TX]::[Source.AR_HSCT_FA: filter={source.AR_HSCT_FA.FACAT != ""DONOR""}]",Derived,,FA_01.CL_HSCT_FA
FA_01,AR_HSCT_FA,,Source,,FA_01.AR_HSCT_FA
FA_01,CL_PET1_CF,[TX]::[Source.AR_PET1_CF],Derived,,FA_01.CL_PET1_CF
FA_01,AR_PET1_CF,,Source,,FA_01.AR_PET1_CF
RELREC_01,CF_NOR_AE,"[NM]::[Intermediate.AE_SCAN_CF: items={Item1,Item2}]",Derived,,RELREC_01.CF_NOR_AE
RELREC_01,AE_SCAN_CF,[SC]::[Intermediate.CF_AE_JN_PET1: key={source.AR_PET1_CF.USUBJID}],Derived,,RELREC_01.AE_SCAN_CF
RELREC_01,CF_AE_JN_PET1,"[JN]::[Source.AR_PET1_CF: key={source.AR_PET1_CF.USUBJID, source.AR_PET1_CF.CFRELAE}]*,[Source.AR_AE: key={source.AR_AE.USUBJID, source.AR_AE.AESPID}]*",Derived,,RELREC_01.CF_AE_JN_PET1
FA_01,CL_PET2_CE,"[TX]::[Source.AR_PET2_CE: filter={source.AR_PET2_CE.CETERM != "" ""}]",Derived,,FA_01.CL_PET2_CE
FA_01,AR_PET2_CE,,Source,,FA_01.AR_PET2_CE
RELREC_01,PET2_CE_NOR_CF,"[NM]::[Intermediate.PET2_CF_SCAN_CE: items={item0,item1}]",Derived,,RELREC_01.PET2_CE_NOR_CF
RELREC_01,PET2_CF_SCAN_CE,[SC]::[Intermediate.PET2_CE_JN_PET2_CF: key={source.AR_PET2_CE.USUBJID}],Derived,,RELREC_01.PET2_CF_SCAN_CE
RELREC_01,PET2_CE_JN_PET2_CF,"[JN]::[Source.AR_PET2_CE: key={source.AR_PET2_CE.USUBJID, source.AR_PET2_CE.CERELCF}]*,[Source.AR_PET2_CF: key={source.AR_PET2_CF.USUBJID, source.AR_PET2_CF.CFSPID}]*",Derived,,RELREC_01.PET2_CE_JN_PET2_CF
RELREC_01,CE_JN_DR_PR,"[JN]::[Source.AR_DR_CE: key={source.AR_DR_CE.USUBJID, source.AR_DR_CE.CERELPR}]*,[Source.AR_PROC_PR: key={source.AR_PROC_PR.USUBJID, source.AR_PROC_PR.PRSPID}]*",Derived,,RELREC_01.CE_JN_DR_PR
RELREC_01,CF_JN_DR_PR,"[JN]::[Source.AR_DR_CF: key={source.AR_DR_CF.USUBJID, source.AR_DR_CF.CFRELPR}]*,[Source.AR_PROC_PR: key={source.AR_PROC_PR.USUBJID, source.AR_PROC_PR.PRSPID}]*",Derived,,RELREC_01.CF_JN_DR_PR
RELREC_01,RTO_JN_RELGRAE,"[JN]::[Source.AR_RTO_CE: key={source.AR_RTO_CE.USUBJID, source.AR_RTO_CE.RELGRAE}]*,[Source.AR_AE: key={source.AR_AE.USUBJID, source.AR_AE.AESPID}]*",Derived,,RELREC_01.RTO_JN_RELGRAE
RELREC_01,RTO_JN_RELGLAE,"[JN]::[Source.AR_RTO_CE: key={source.AR_RTO_CE.USUBJID, source.AR_RTO_CE.RELGLAE}]*,[Source.AR_AE: key={source.AR_AE.USUBJID, source.AR_AE.AESPID}]*",Derived,,RELREC_01.RTO_JN_RELGLAE
RELREC_01,RTO_JN_RELAEID,"[JN]::[Source.AR_RTO_CE: key={source.AR_RTO_CE.USUBJID, source.AR_RTO_CE.RELAEID}]*,[Source.AR_AE: key={source.AR_AE.USUBJID, source.AR_AE.AESPID}]*",Derived,,RELREC_01.RTO_JN_RELAEID
RELREC_01,RTO_JN_RELPRID,"[JN]::[Source.AR_RTO_CE: key={source.AR_RTO_CE.USUBJID, source.AR_RTO_CE.RELPRID}]*,[Source.AR_PROC_PR: key={source.AR_PROC_PR.USUBJID, source.AR_PROC_PR.PRSPID}]*",Derived,,RELREC_01.RTO_JN_RELPRID
FA_01,CL_RTO_FA,[TX]::[Source.AR_RTO_FA: filter={source.AR_RTO_FA.FAORRES!= ''}],Derived,,FA_01.CL_RTO_FA
FA_01,AR_RTO_FA,,Source,,FA_01.AR_RTO_FA
RELREC_01,CDIB_NOR_CE_FA,"[NM]::[Intermediate.CDIB_SCAN_CE_FA: items={Item1,Item2}]",Derived,,RELREC_01.CDIB_NOR_CE_FA
RELREC_01,CDIB_SCAN_CE_FA,[SC]::[Intermediate.CDIB_CE_FA: key={source.AR_CDIB_CE.USUBJID}],Derived,,RELREC_01.CDIB_SCAN_CE_FA
RELREC_01,CE_NOR_DR_PR,"[NM]::[Intermediate.CE_SCAN_DR_PR: items={Item1,Item2}]",Derived,,RELREC_01.CE_NOR_DR_PR
RELREC_01,CE_SCAN_DR_PR,[SC]::[Intermediate.CE_JN_DR_PR: key={source.AR_DR_CE.USUBJID}],Derived,,RELREC_01.CE_SCAN_DR_PR
RELREC_01,CF_NOR_DR_PR,"[NM]::[Intermediate.CF_SCAN_DR_PR: items={Item1,Item2}]",Derived,,RELREC_01.CF_NOR_DR_PR
RELREC_01,CF_SCAN_DR_PR,[SC]::[Intermediate.CF_JN_DR_PR: key={source.AR_DR_CF.USUBJID}],Derived,,RELREC_01.CF_SCAN_DR_PR
RELREC_01,RTO_NOR_RELGRAE,"[NM]::[Intermediate.RTO_SCAN_RELGRAE: items={Item1,Item2}]",Derived,,RELREC_01.RTO_NOR_RELGRAE
RELREC_01,RTO_SCAN_RELGRAE,[SC]::[Intermediate.RTO_JN_RELGRAE: key={source.AR_RTO_CE.USUBJID}],Derived,,RELREC_01.RTO_SCAN_RELGRAE
RELREC_01,RTO_NOR_RELGLAE,"[NM]::[Intermediate.RTO_SCAN_RELGLAE: items={Item1,Item2}]",Derived,,RELREC_01.RTO_NOR_RELGLAE
RELREC_01,RTO_SCAN_RELGLAE,[SC]::[Intermediate.RTO_JN_RELGLAE: key={source.AR_RTO_CE.USUBJID}],Derived,,RELREC_01.RTO_SCAN_RELGLAE
RELREC_01,RTO_NOR_RELAEID,"[NM]::[Intermediate.RTO_SCAN_RELAEID: items={Item1,Item2}]",Derived,,RELREC_01.RTO_NOR_RELAEID
RELREC_01,RTO_SCAN_RELAEID,[SC]::[Intermediate.RTO_JN_RELAEID: key={source.AR_RTO_CE.USUBJID}],Derived,,RELREC_01.RTO_SCAN_RELAEID
RELREC_01,RTO_NOR_RELPRID,"[NM]::[Intermediate.RTO_SCAN_RELPRID: items={Item1,Item2}]",Derived,,RELREC_01.RTO_NOR_RELPRID
RELREC_01,RTO_SCAN_RELPRID,[SC]::[Intermediate.RTO_JN_RELPRID: key={source.AR_RTO_CE.USUBJID}],Derived,,RELREC_01.RTO_SCAN_RELPRID
APFA_01,CL_APFA_RTP_CF,[TX]::[Intermediate.TX_JN_DONOR],Derived,,APFA_01.CL_APFA_RTP_CF
APFA_01,CL_APFA_RTP_PF,[TX]::[Source.AR_RTP_PF],Derived,,APFA_01.CL_APFA_RTP_PF
APFA_01,AR_RTP_PF,,Source,,APFA_01.AR_RTP_PF
APFA_01,TX_JN_DONOR,"[JN]::[Intermediate.TX_RTP_CF: key={source.AR_RTP_CF.USUBJID, source.AR_RTP_CF.CFDTC}]*,[Intermediate.TX_DONOR_FA: key={intermediate.TX_DONOR_FA.USUB, intermediate.TX_DONOR_FA.DTC}]",Derived,,APFA_01.TX_JN_DONOR
APFA_01,TX_RTP_CF,[TX]::[Source.AR_RTP_CF: filter={((source.AR_RTP_CF.CFSCAT!= 'RECIPIENT') && (source.AR_RTP_CF.CFTESTCD!= 'DONORTYP'))}],Derived,,APFA_01.TX_RTP_CF
APFA_01,TX_DONOR_FA,[TX]::[Source.AR_RTP_CF: filter={upcase( source.AR_RTP_CF.CFTESTCD) = 'DONORTYP'}],Derived,,APFA_01.TX_DONOR_FA
RELREC_01,RTP_JN_MH,"[JN]::[Source.AR_RTP_CF: key={source.AR_RTP_CF.USUBJID, source.AR_RTP_CF.CFRELMH} filter={((source.AR_RTP_CF.CFSCAT!= 'DONOR') && (source.AR_RTP_CF.CFTESTCD!= 'DONORTYP'))}]*,[Source.AR_MH: key={source.AR_MH.USUBJID, source.AR_MH.MHSPID}]*",Derived,,RELREC_01.RTP_JN_MH
RELREC_01,RTP_NOR_MH,"[NM]::[Intermediate.RTP_SCAN_MH: items={Item1,Item2}]",Derived,,RELREC_01.RTP_NOR_MH
RELREC_01,RTP_SCAN_MH,[SC]::[Intermediate.RTP_JN_MH: key={source.AR_RTP_CF.USUBJID}],Derived,,RELREC_01.RTP_SCAN_MH
VS_01,CL_VSE_EDT_VS,[TX]::[Source.AR_VSE_EDT_VS],Derived,,VS_01.CL_VSE_EDT_VS
VS_01,AR_VSE_EDT_VS,,Source,,VS_01.AR_VSE_EDT_VS
EG_01,CL_CECG_EDT_EG,[TX]::[Source.AR_CECG_EDT_EG],Derived,,EG_01.CL_CECG_EDT_EG
EG_01,AR_CECG_EDT_EG,,Source,,EG_01.AR_CECG_EDT_EG
EG_01,EG_MER,"[MG]::[EG.PART_CL_CECG_EDT_EG],[EG.PART_CL_LECG_EG]",Derived,,EG_01.EG_MER
APRP_01,CL_PRG03_FF,"[TX filter={ldm.PART_CL_PRG03_FF.RPORRES !=""""}]::[Source.AR_PRG03_FF]",Derived,,APRP_01.CL_PRG03_FF
APRP_01,AR_PRG03_FF,,Source,,APRP_01.AR_PRG03_FF
PR_01,CL_PROCE_EDT_PR,[TX]::[Source.AR_PROCE_EDT_PR],Derived,,PR_01.CL_PROCE_EDT_PR
PR_01,AR_PROCE_EDT_PR,,Source,,PR_01.AR_PROCE_EDT_PR
PR_01,CL_PR_SCAN_PR,[TX]::[Source.AR_SCAN_PR],Derived,,PR_01.CL_PR_SCAN_PR
PR_01,AR_SCAN_PR,,Source,,PR_01.AR_SCAN_PR
FA_01,CL_SCAN_CF,[TX]::[Intermediate.CF_JN_PR],Derived,,FA_01.CL_SCAN_CF
FA_01,CF_JN_PR,"[JN]::[Source.AR_SCAN_CF: key={source.AR_SCAN_CF.USUBJID, source.AR_SCAN_CF.CFDTC, source.AR_SCAN_CF.CFSPID}]*,[Source.AR_SCAN_PR: key={source.AR_SCAN_PR.SUBJID, source.AR_SCAN_PR.PRSTDTC, source.AR_SCAN_PR.PRSPID}]",Derived,,FA_01.CF_JN_PR
FA_01,AR_SCAN_CF,,Source,,FA_01.AR_SCAN_CF
FA_01,CL_SCAN_PR,[TX filter={CL_SCAN_PR.FAORRES != ''}]::[Intermediate.FA_NOR_SCAN_PR],Derived,,FA_01.CL_SCAN_PR
FA_01,FA_NOR_SCAN_PR,"[NM]::[Source.AR_SCAN_PR: items={Item1,Item2,Item3,Item4,Item5,Item6,Item7,Item8,Item9,Item10,Item11,Item12,Item13,Item14}]",Derived,,FA_01.FA_NOR_SCAN_PR
CO_01,CL_CO_SCAN_CF,[TX]::[Source.AR_SCAN_CF],Derived,,CO_01.CL_CO_SCAN_CF
CO_01,CL_CO_SCAN_PR,[TX]::[Source.AR_SCAN_PR],Derived,,CO_01.CL_CO_SCAN_PR
CE_01,CL_RIA_CE,[TX]::[Intermediate.RIA_JN_CE],Derived,,CE_01.CL_RIA_CE
CE_01,RIA_JN_CE,"[JN]::[Source.AR_RIA_CE: key={source.AR_RIA_CE.USUBJID, source.AR_RIA_CE.VISITID}]*,[Intermediate.RIA_INVEST: key={intermediate.RIA_INVEST.UBJID, intermediate.RIA_INVEST.VISITID}]",Derived,,CE_01.RIA_JN_CE
CE_01,AR_RIA_CE,,Source,,CE_01.AR_RIA_CE
CE_01,RIA_INVEST,"[TX]::[Source.AR_RIA_CE: filter={source.AR_RIA_CE.CEEVAL = ""INVESTIGATOR""}]",Derived,,CE_01.RIA_INVEST
QS_01,CL_PAA2_QS,[TX]::[Intermediate.JN_PAA2],Derived,,QS_01.CL_PAA2_QS
QS_01,JN_PAA2,"[JN]::[Intermediate.TX_VER_RAT_PAA2: key={source.AR_PAA2_QS.USUBJID}]*,[Intermediate.TSQ_VER_RATER_PAA201: key={intermediate.TSQ_VER_RATER_PAA201.USUB}]^",Derived,,QS_01.JN_PAA2
QS_01,AR_PAA2_QS,,Source,,QS_01.AR_PAA2_QS
QS_01,TSQ_VER_RATER_PAA201,"[TX]::[Source.AR_PAA2_QS: filter={source.AR_PAA2_QS.QSTESTCD IN (""VERSION"", ""RATER"", ""PAA201"")}]",Derived,,QS_01.TSQ_VER_RATER_PAA201
APRP_01,PRG03_JN,"[JN]::[Intermediate.PRG03_PY_NOR: key={source.AR_PRG03_PY.USUBJID, source.AR_PRG03_PY.VISIT, source.AR_PRG03_PY.PYSPID}]*,[Intermediate.TX_PYDTC: key={intermediate.TX_PYDTC.USUBJ, intermediate.TX_PYDTC.VIS, intermediate.TX_PYDTC.SPID}]",Derived,,APRP_01.PRG03_JN
APRP_01,PRG03_PY_NOR,"[NM]::[Source.AR_PRG03_PY: items={item0,item1}]",Derived,,APRP_01.PRG03_PY_NOR
APRP_01,AR_PRG03_PY,,Source,,APRP_01.AR_PRG03_PY
APRP_01,MER_APRP,"[MG]::[APRP.PART_CL_PRG03_FF],[APRP.PART_CL_PRG03_PY],[APRP.PART_APRP_PRG02_FF],[APRP.PART_APRP_PRG04_FF],[APRP.PART_APRP_PRG04_FE]",Derived,,APRP_01.MER_APRP
APRP_01,CL_PRG03_PY,"[TX filter={ldm.PART_CL_PRG03_PY.RPORRES !=""""}]::[Intermediate.PRG03_JN]",Derived,,APRP_01.CL_PRG03_PY
QS_01,TX_JN_VER1,"[JN]::[Intermediate.TX_PI_QS: key={source.AR_PI_QS.USUBJID}]*,[Intermediate.TSQ_VER_PI: key={intermediate.TSQ_VER_PI.USUB}]^",Derived,,QS_01.TX_JN_VER1
CE_01,FINAL_AGG,"[AG]::[Intermediate.CE_AG_FACE: key={source.AR_VRCSC_EDT_FA.USUBJID, source.AR_VRCSC_EDT_FA.FAOBJ, source.AR_VRCSC_EDT_FA.EPOCH, intermediate.CE_AG_FACE.CELOC, intermediate.CE_AG_FACE.CELAT, intermediate.CE_AG_FACE.CEDIR, intermediate.CE_AG_FACE.OCCUR*}]",Derived,,CE_01.FINAL_AGG
CE_01,LDIAM_AGG,"[AG]::[Source.AR_VRCSC_EDT_FA: key={source.AR_VRCSC_EDT_FA.USUBJID, source.AR_VRCSC_EDT_FA.FATESTCD, source.AR_VRCSC_EDT_FA.EPOCH, source.AR_VRCSC_EDT_FA.FAOBJ, source.AR_VRCSC_EDT_FA.FALOC, source.AR_VRCSC_EDT_FA.FALAT} filter={source.AR_VRCSC_EDT_FA.FATESTCD IN ('LDIAM','EPSDNUM')}]",Derived,,CE_01.LDIAM_AGG
APAE_01,APAE_SAEP_FE,"[TX filter={APAE_SAEP_FE.APID !=''}]::[Source.AR_SAEP_FE: filter={(source.AR_SAEP_FE.FETERM != ""HOSPITAL"" || source.AR_SAEP_FE.AUTCOMP = """" )}]",Derived,,APAE_01.APAE_SAEP_FE
APAE_01,AR_SAEP_FE,,Source,,APAE_01.AR_SAEP_FE
APAE_01,MER_APAE,"[MG]::[APAE.PART_APAE_OUT],[APAE.PART_APAE_SAEP_FE]",Derived,,APAE_01.MER_APAE
APDD_01,APDD_SAEP_FE,[TX]::[Intermediate.DD_NOR_SAEP_FE],Derived,,APDD_01.APDD_SAEP_FE
APDD_01,DD_NOR_SAEP_FE,"[NM]::[Source.AR_SAEP_FE: items={Item1,Item2}]",Derived,,APDD_01.DD_NOR_SAEP_FE
RELREC_01,HSCT_NOR,"[NM]::[Intermediate.HSCT_SCAN: items={Item1,Item2}]",Derived,,RELREC_01.HSCT_NOR
RELREC_01,HSCT_SCAN,[SC]::[Intermediate.HSCT_PR_MH: key={source.AR_HSCT_PR.USUBJID}],Derived,,RELREC_01.HSCT_SCAN
RELREC_01,HSCT_PR_MH,"[JN]::[Source.AR_HSCT_PR: key={source.AR_HSCT_PR.USUBJID, source.AR_HSCT_PR.RELPRMH}]*,[Source.AR_MH: key={source.AR_MH.USUBJID, source.AR_MH.MHSPID}]*",Derived,,RELREC_01.HSCT_PR_MH
APFA_01,SAEPJNFE_FF,"[JN]::[Source.AR_SAEP_FE: key={source.AR_SAEP_FE.USUBJID, source.AR_SAEP_FE.FESPID}],[Source.AR_SAEP_FF]",Derived,,APFA_01.SAEPJNFE_FF
APFA_01,AR_SAEP_FF,,Source,,APFA_01.AR_SAEP_FF
APVS_01,APVS_MER,"[MG]::[APVS.PART_APVS_OUT],[APVS.PART_APVS_PRG04_FF],[APVS.PART_APVS_LACT_FF]",Derived,,APVS_01.APVS_MER
APRP_01,APRP_PRG02_FF,"[TX]::[Source.AR_PRG02_FF: filter={source.AR_PRG02_FF.FFTESTCD in (""ABOTHIND"", ""EXPLACT"", ""OVREL"", ""REL"", ""REL1"", ""REL2"", ""REL3"", ""REL4"", ""REL5"", ""REL6"", ""REL7"", ""REL8"", ""REL9"", ""REL10"", ""CABNIND"")}]",Derived,,APRP_01.APRP_PRG02_FF
APCC_01,APCC_PRG02_FF,"[TX]::[Source.AR_PRG02_FF: filter={source.AR_PRG02_FF.FFTESTCD in (""APGAR1M"", ""APGAR5M"")}]",Derived,,APCC_01.APCC_PRG02_FF
APCC_01,APCC_MER,"[MG]::[APCC.PART_APCC_PRG02_FF],[APCC.PART_APCC_PRG04_FF]",Derived,,APCC_01.APCC_MER
APCO_01,APCO_PRG02_FF,[TX]::[Source.AR_PRG02_FF],Derived,,APCO_01.APCO_PRG02_FF
APCO_01,APCO_MER,"[MG filter={ldm.CO.COVAL != ''}]::[APCO.PART_APCO_PRG02_FF],[APCO.PART_APCO_PRG04_FE],[APCO.PART_APCO_NOR_SAEP_FE],[APCO.PART_APCO_SAEI_FE]",Derived,,APCO_01.APCO_MER
APSC_01,APSC_PRG02_FF,"[TX]::[Source.AR_PRG02_FF: filter={source.AR_PRG02_FF.FFTESTCD in (""SEX"", ""EGESTAGE"" )}]",Derived,,APSC_01.APSC_PRG02_FF
APSC_01,APSC_MER,"[MG]::[APSC.PART_APSC_PRG02_FF],[APSC.PART_APSC_PRG04_FF]",Derived,,APSC_01.APSC_MER
FT_01,CL_SNFE_QS1,[TX]::[Intermediate.TX_JN_SNFE],Derived,,FT_01.CL_SNFE_QS1
FT_01,TX_JN_SNFE,"[JN]::[Intermediate.TX_SNFE_QS: key={source.AR_SNFE_QS.USUBJID, source.AR_SNFE_QS.QSDTC}],[Intermediate.TX_VER_SNFE: key={intermediate.TX_VER_SNFE.USUB, intermediate.TX_VER_SNFE.DTC}]*",Derived,,FT_01.TX_JN_SNFE
FT_01,TX_SNFE_QS,[TX]::[Source.AR_SNFE_QS: filter={upcase( source.AR_SNFE_QS.QSTESTCD) != 'VERSION'}],Derived,,FT_01.TX_SNFE_QS
FT_01,AR_SNFE_QS,,Source,,FT_01.AR_SNFE_QS
FT_01,TX_VER_SNFE,[TX]::[Source.AR_SNFE_QS: filter={upcase( source.AR_SNFE_QS.QSTESTCD) = 'VERSION'}],Derived,,FT_01.TX_VER_SNFE
APVS_01,APVS_PRG04_FF,"[TX]::[Source.AR_PRG04_FF: filter={source.AR_PRG04_FF.FFTESTCD in (""WEIGHT"", ""BODLNGTH"", ""HDCIRC"")}]",Derived,,APVS_01.APVS_PRG04_FF
APVS_01,AR_PRG04_FF,,Source,,APVS_01.AR_PRG04_FF
APRP_01,APRP_PRG04_FF,"[TX]::[Source.AR_PRG04_FF: filter={source.AR_PRG04_FF.FFTESTCD in ( ""EXPLACT"", ""OVREL"", ""REL"", ""REL1"", ""REL2"", ""REL3"", ""REL4"", ""REL5"", ""REL6"", ""REL7"", ""REL8"", ""REL9"", ""REL10"", ""CABNIND"")}]",Derived,,APRP_01.APRP_PRG04_FF
APCC_01,APCC_PRG04_FF,"[TX]::[Source.AR_PRG04_FF: filter={source.AR_PRG04_FF.FFTESTCD in (""APGAR1M"", ""APGAR5M"")}]",Derived,,APCC_01.APCC_PRG04_FF
APSC_01,APSC_PRG04_FF,"[TX]::[Source.AR_PRG04_FF: filter={source.AR_PRG04_FF.FFTESTCD in (""SEX"", ""EGESTAGE"" )}]",Derived,,APSC_01.APSC_PRG04_FF
FA_01,CL_CRPA_CF,[TX]::[Source.AR_CRPA_CF],Derived,,FA_01.CL_CRPA_CF
FA_01,AR_CRPA_CF,,Source,,FA_01.AR_CRPA_CF
QS_01,CL_FACES_QS,[TX]::[Intermediate.TX_JN_FACES],Derived,,QS_01.CL_FACES_QS
QS_01,TX_JN_FACES,"[JN]::[Intermediate.TX_FACES: key={source.AR_FACES_QS.USUBJID}]*,[Intermediate.TX_VER_FACES: key={intermediate.TX_VER_FACES.USUB}]^",Derived,,QS_01.TX_JN_FACES
QS_01,TX_FACES,[TX]::[Source.AR_FACES_QS: filter={upcase( source.AR_FACES_QS.QSTESTCD) != 'VERSION'}],Derived,,QS_01.TX_FACES
QS_01,AR_FACES_QS,,Source,,QS_01.AR_FACES_QS
QS_01,TX_VER_FACES,[TX]::[Source.AR_FACES_QS: filter={upcase( source.AR_FACES_QS.QSTESTCD) = 'VERSION'}],Derived,,QS_01.TX_VER_FACES
QS_01,CL_FLACC_QS,[TX]::[Intermediate.TX_JN_FLACC],Derived,,QS_01.CL_FLACC_QS
QS_01,TX_JN_FLACC,"[JN]::[Intermediate.TX_FLACC: key={source.AR_FLACC_QS.USUBJID}]*,[Intermediate.TX_VER_FLACC: key={intermediate.TX_VER_FLACC.USUB}]^",Derived,,QS_01.TX_JN_FLACC
QS_01,TX_FLACC,[TX]::[Source.AR_FLACC_QS: filter={upcase( source.AR_FLACC_QS.QSTESTCD) != 'VERSION'}],Derived,,QS_01.TX_FLACC
QS_01,AR_FLACC_QS,,Source,,QS_01.AR_FLACC_QS
QS_01,TX_VER_FLACC,[TX]::[Source.AR_FLACC_QS: filter={upcase( source.AR_FLACC_QS.QSTESTCD) = 'VERSION'}],Derived,,QS_01.TX_VER_FLACC
CE_01,CL_ABSI_CE,[TX]::[Source.AR_ABSI_CE],Derived,,CE_01.CL_ABSI_CE
CE_01,AR_ABSI_CE,,Source,,CE_01.AR_ABSI_CE
MB_01,CL_MCRO_MB,[TX]::[Source.AR_MCRO_MB],Derived,,MB_01.CL_MCRO_MB
MB_01,AR_MCRO_MB,,Source,,MB_01.AR_MCRO_MB
MB_01,CL_MOI_MB,"[TX]::[Source.AR_MOI_MB: filter={source.AR_MOI_MB.MBTESTCD != ""CULTCCT""}]",Derived,,MB_01.CL_MOI_MB
MB_01,AR_MOI_MB,,Source,,MB_01.AR_MOI_MB
MS_01,MS_MOI_MB,"[TX]::[Source.AR_MOI_MB: filter={source.AR_MOI_MB.MBTESTCD = ""CULTCCT""}]",Derived,,MS_01.MS_MOI_MB
RELREC_01,MB_NOR_MS,"[NM]::[Intermediate.MB_SCAN_MS: items={Item1,Item2}]",Derived,,RELREC_01.MB_NOR_MS
RELREC_01,MB_SCAN_MS,[SC]::[Intermediate.MB_JN_MS: key={source.AR_MOI_MB.USUBJID}],Derived,,RELREC_01.MB_SCAN_MS
RELREC_01,MB_JN_MS,"[JN]::[Source.AR_MOI_MB: key={source.AR_MOI_MB.USUBJID, source.AR_MOI_MB.MBLNKID}]*,[Source.AR_MOI_MS: key={source.AR_MOI_MS.USUBJID, source.AR_MOI_MS.MSLNKID}]*",Derived,,RELREC_01.MB_JN_MS
RELREC_01,AR_MOI_MS,,Source,,RELREC_01.AR_MOI_MS
MS_01,CL_MOI_MS,[TX]::[Source.AR_MOI_MS],Derived,,MS_01.CL_MOI_MS
TR_01,CL_LM_FA,[TX]::[Source.AR_LM_FA],Derived,,TR_01.CL_LM_FA
TR_01,AR_LM_FA,,Source,,TR_01.AR_LM_FA
TR_01,TR_MER,"[MG]::[TR.PART_CL_LM_FA],[TR.PART_TEMP_LM_FA]",Derived,,TR_01.TR_MER
TR_01,TEMP_LM_FA,[TX]::[Source.AR_LM_FA: filter={1=2}],Derived,,TR_01.TEMP_LM_FA
TU_01,TU_LM_FA,[TX]::[Source.AR_LM_FA],Derived,,TU_01.TU_LM_FA
TU_01,TU_MER,"[MG]::[TU.PART_TU_LM_FA],[TU.PART_TEMP_TU_LM_FA]",Derived,,TU_01.TU_MER
TU_01,TEMP_TU_LM_FA,[TX]::[Source.AR_LM_FA: filter={1=2}],Derived,,TU_01.TEMP_TU_LM_FA
QS_01,CL_PAAM_QS,[TX]::[Intermediate.JN_PAAM_QS],Derived,,QS_01.CL_PAAM_QS
QS_01,JN_PAAM_QS,"[JN]::[Intermediate.TA_PAAM_QS1: key={source.AR_PAAM_QS.USUBJID}]*,[Intermediate.TSQ_VER_RATER: key={intermediate.TSQ_VER_RATER.USUB}]^",Derived,,QS_01.JN_PAAM_QS
QS_01,TA_PAAM_QS1,[TX]::[Intermediate.TX_PAAM_QS: filter={upcase(source.AR_PAAM_QS.QSTESTCD) != 'RATER'}],Derived,,QS_01.TA_PAAM_QS1
QS_01,TX_PAAM_QS,[TX]::[Source.AR_PAAM_QS: filter={upcase(source.AR_PAAM_QS.QSTESTCD) != 'VERSION'}],Derived,,QS_01.TX_PAAM_QS
QS_01,AR_PAAM_QS,,Source,,QS_01.AR_PAAM_QS
QS_01,TSQ_VER_RATER,"[TX]::[Source.AR_PAAM_QS: filter={source.AR_PAAM_QS.QSTESTCD IN (""VERSION"", ""RATER"")}]",Derived,,QS_01.TSQ_VER_RATER
OE_01,CL_VA_OE,[TX]::[Source.AR_VA_OE],Derived,,OE_01.CL_VA_OE
OE_01,AR_VA_OE,,Source,,OE_01.AR_VA_OE
AG_01,CL_AGA_AG,[TX]::[Source.AR_AGA_AG],Derived,,AG_01.CL_AGA_AG
AG_01,AR_AGA_AG,,Source,,AG_01.AR_AGA_AG
AG_01,MER_AG,"[MG]::[AG.PART_CL_AGA_AG],[AG.PART_TEMP_AGA_AG]",Derived,,AG_01.MER_AG
AG_01,TEMP_AGA_AG,[TX]::[Source.AR_AGA_AG: filter={1=2}],Derived,,AG_01.TEMP_AGA_AG
BS_01,CL_MSC_BS,[TX]::[Source.AR_MSC_BS],Derived,,BS_01.CL_MSC_BS
BS_01,AR_MSC_BS,,Source,,BS_01.AR_MSC_BS
FA_01,CL_HOAB_FA,[TX]::[Source.AR_HOAB_FA],Derived,,FA_01.CL_HOAB_FA
FA_01,AR_HOAB_FA,,Source,,FA_01.AR_HOAB_FA
MH_01,CL_HOAB_MH,[TX]::[Source.AR_HOAB_MH],Derived,,MH_01.CL_HOAB_MH
MH_01,AR_HOAB_MH,,Source,,MH_01.AR_HOAB_MH
RP_01,JN_PRG01,"[JN]::[Intermediate.PY_NOR_RP: key={source.AR_PRG01_PY.USUBJID, source.AR_PRG01_PY.VISIT}]*,[Intermediate.TX_RPDTC: key={intermediate.TX_RPDTC.USUB, intermediate.TX_RPDTC.VIS}]",Derived,,RP_01.JN_PRG01
RP_01,TX_RPDTC,"[TX]::[Source.AR_PRG01_PY: filter={source.AR_PRG01_PY.PYTESTCD = ""PRVPREGN""}]",Derived,,RP_01.TX_RPDTC
APRP_01,TX_PYDTC,"[TX]::[Source.AR_PRG03_PY: filter={source.AR_PRG03_PY.PYTESTCD = ""CABNIND""}]",Derived,,APRP_01.TX_PYDTC
OE_01,OE_OUT,"[MG]::[OE.PART_CL_VA_OE],[OE.PART_TX_TEMP_VA_OE]",Derived,,OE_01.OE_OUT
OE_01,TX_TEMP_VA_OE,[TX]::[Source.AR_VA_OE: filter={1=2}],Derived,,OE_01.TX_TEMP_VA_OE
QS_01,CL_ASQ_QS,[TX]::[Intermediate.TX_JN_ASQ_QS],Derived,,QS_01.CL_ASQ_QS
QS_01,TX_JN_ASQ_QS,"[JN]::[Intermediate.TX_TSQ_QS: key={source.AR_ASQ_QS.USUBJID}]*,[Intermediate.TX_VER_ASQ_QS: key={intermediate.TX_VER_ASQ_QS.USUB}]^",Derived,,QS_01.TX_JN_ASQ_QS
QS_01,TX_TSQ_QS,[TX]::[Source.AR_ASQ_QS: filter={upcase( source.AR_ASQ_QS.QSTESTCD) != 'VERSION'}],Derived,,QS_01.TX_TSQ_QS
QS_01,AR_ASQ_QS,,Source,,QS_01.AR_ASQ_QS
QS_01,TX_VER_ASQ_QS,[TX]::[Source.AR_ASQ_QS: filter={upcase( source.AR_ASQ_QS.QSTESTCD) = 'VERSION'}],Derived,,QS_01.TX_VER_ASQ_QS
QS_01,CL_HSDC_QS,[TX]::[Intermediate.JN_HSDC_QS],Derived,,QS_01.CL_HSDC_QS
QS_01,JN_HSDC_QS,"[JN]::[Intermediate.TX_HSDC_QS: key={source.AR_HSDC_QS.USUBJID}]*,[Intermediate.TX_VER_HSDC_QS: key={intermediate.TX_VER_HSDC_QS.USUB}]^",Derived,,QS_01.JN_HSDC_QS
QS_01,TX_HSDC_QS,[TX]::[Source.AR_HSDC_QS: filter={upcase( source.AR_HSDC_QS.QSTESTCD) != 'VERSION'}],Derived,,QS_01.TX_HSDC_QS
QS_01,AR_HSDC_QS,,Source,,QS_01.AR_HSDC_QS
QS_01,TX_VER_HSDC_QS,[TX]::[Source.AR_HSDC_QS: filter={upcase( source.AR_HSDC_QS.QSTESTCD) = 'VERSION'}],Derived,,QS_01.TX_VER_HSDC_QS
IS_01,CL_IS_PD2_BS,[TX]::[Intermediate.IS_NOR_PD2],Derived,,IS_01.CL_IS_PD2_BS
IS_01,AR_PD2_BS,,Source,,IS_01.AR_PD2_BS
IS_01,IS_OUT,"[MG]::[IS.PART_CL_IS_PD2_BS],[IS.PART_CL_IMUNG_EDT],[IS.PART_IS_PD3]",Derived,,IS_01.IS_OUT
SC_01,CL_ADI_SC,[TX]::[Source.AR_ADI_SC],Derived,,SC_01.CL_ADI_SC
SC_01,AR_ADI_SC,,Source,,SC_01.AR_ADI_SC
LB_01,LB_PD2_BS,[TX]::[Intermediate.NOR_PD2_LB],Derived,,LB_01.LB_PD2_BS
LB_01,NOR_PD2_LB,"[NM]::[Source.AR_PD2_BS: items={Item1,Item2}]",Derived,,LB_01.NOR_PD2_LB
IS_01,IS_NOR_PD2,"[NM]::[Source.AR_PD2_BS: items={Item1,Item2}]",Derived,,IS_01.IS_NOR_PD2
APFA_01,APFA_HSCT_FA,"[TX]::[Source.AR_HSCT_FA: filter={source.AR_HSCT_FA.FACAT = ""DONOR""}]",Derived,,APFA_01.APFA_HSCT_FA
PR_01,CL_PR_AOS_PR,[TX]::[Source.AR_AOS_PR],Derived,,PR_01.CL_PR_AOS_PR
PR_01,AR_AOS_PR,,Source,,PR_01.AR_AOS_PR
FA_01,FA_IAA1_CF,[TX]::[Source.AR_IAA1_CF],Derived,,FA_01.FA_IAA1_CF
FA_01,AR_IAA1_CF,,Source,,FA_01.AR_IAA1_CF
MH_01,MH_IAA1_MH,[TX]::[Source.AR_IAA1_MH],Derived,,MH_01.MH_IAA1_MH
MH_01,AR_IAA1_MH,,Source,,MH_01.AR_IAA1_MH
MB_01,MB_MCRP_MB,"[TX]::[Source.AR_MCRP_MB: filter={source.AR_MCRP_MB.MBTESTCD != ""MICRORSP""}]",Derived,,MB_01.MB_MCRP_MB
MB_01,AR_MCRP_MB,,Source,,MB_01.AR_MCRP_MB
CE_01,CL_CE_BISS1_CE,[TX]::[Source.AR_BISS1_CE],Derived,,CE_01.CL_CE_BISS1_CE
CE_01,AR_BISS1_CE,,Source,,CE_01.AR_BISS1_CE
CO_01,CO_AR_AOS_PR,[TX]::[Source.AR_AOS_PR],Derived,,CO_01.CO_AR_AOS_PR
MS_01,MS_MCRP_MB,"[TX]::[Source.AR_MCRP_MB: filter={source.AR_MCRP_MB.MBTESTCD = ""MICRORSP""}]",Derived,,MS_01.MS_MCRP_MB
FA_01,FA_BISS1_CF,[TX]::[Source.AR_BISS1_CF],Derived,,FA_01.FA_BISS1_CF
FA_01,AR_BISS1_CF,,Source,,FA_01.AR_BISS1_CF
VS_01,CL_VS_RM_VS,[TX]::[Source.AR_RM_VS],Derived,,VS_01.CL_VS_RM_VS
VS_01,AR_RM_VS,,Source,,VS_01.AR_RM_VS
LB_01,CL_LB_RM_LB,[TX]::[Source.AR_RM_LB],Derived,,LB_01.CL_LB_RM_LB
LB_01,AR_RM_LB,,Source,,LB_01.AR_RM_LB
LB_01,CL_LB_RM_CF,[TX]::[Source.AR_RM_CF],Derived,,LB_01.CL_LB_RM_CF
LB_01,AR_RM_CF,,Source,,LB_01.AR_RM_CF
PR_01,CL_PR_PSF_PR,[TX]::[Source.AR_PSF_PR],Derived,,PR_01.CL_PR_PSF_PR
PR_01,AR_PSF_PR,,Source,,PR_01.AR_PSF_PR
RE_01,CL_RE_PSF_PR,[TX]::[Source.AR_PSF_PR],Derived,,RE_01.CL_RE_PSF_PR
SS_01,CL_SS_VST_SS,[TX]::[Source.AR_VST_SS],Derived,,SS_01.CL_SS_VST_SS
SS_01,AR_VST_SS,,Source,,SS_01.AR_VST_SS
SS_01,SS_OUT,"[MG]::[SS.PART_CL_SS_VST_SS],[SS.PART_TEMP_VST_SS]",Derived,,SS_01.SS_OUT
PR_01,CL_PR_UTA1_PR,[TX]::[Source.AR_UTA1_PR],Derived,,PR_01.CL_PR_UTA1_PR
PR_01,AR_UTA1_PR,,Source,,PR_01.AR_UTA1_PR
MH_01,CL_MH_UTA1_MH,[TX]::[Source.AR_UTA1_MH],Derived,,MH_01.CL_MH_UTA1_MH
MH_01,AR_UTA1_MH,,Source,,MH_01.AR_UTA1_MH
RE_01,CL_RE_PSF_CF,[TX]::[Source.AR_PSF_CF],Derived,,RE_01.CL_RE_PSF_CF
RE_01,AR_PSF_CF,,Source,,RE_01.AR_PSF_CF
CV_01,CL_CV_CCM_CV,[TX]::[Source.AR_CCM_CV],Derived,,CV_01.CL_CV_CCM_CV
CV_01,AR_CCM_CV,,Source,,CV_01.AR_CCM_CV
VS_01,CL_VS_CCM_VS,[TX]::[Source.AR_CCM_VS],Derived,,VS_01.CL_VS_CCM_VS
VS_01,AR_CCM_VS,,Source,,VS_01.AR_CCM_VS
RE_01,CL_FRI_EDT_RE,[TX]::[Source.AR_FRI_EDT_RE],Derived,,RE_01.CL_FRI_EDT_RE
RE_01,AR_FRI_EDT_RE,,Source,,RE_01.AR_FRI_EDT_RE
LB_01,CL_LB_OLB_LB,[TX]::[Source.AR_OLB_LB],Derived,,LB_01.CL_LB_OLB_LB
SS_01,TEMP_VST_SS,[TX]::[Source.AR_VST_SS: filter={1=2}],Derived,,SS_01.TEMP_VST_SS
FA_01,FA_AR_PTR_CF,[TX]::[Source.AR_PTR_CF],Derived,,FA_01.FA_AR_PTR_CF
FA_01,AR_PTR_CF,,Source,,FA_01.AR_PTR_CF
CE_01,CE_AR_SWA_CE,[TX]::[Source.AR_SWA_CE],Derived,,CE_01.CE_AR_SWA_CE
CE_01,AR_SWA_CE,,Source,,CE_01.AR_SWA_CE
RELREC_01,CM_NOR_PR,"[NM]::[Intermediate.CM_SCAN_PR: items={Item1,Item2}]",Derived,,RELREC_01.CM_NOR_PR
RELREC_01,CM_SCAN_PR,[SC]::[Intermediate.CM_JN_PR: key={source.AR_PTR_CF.USUBJID}],Derived,,RELREC_01.CM_SCAN_PR
RELREC_01,CM_JN_PR,"[JN]::[Source.AR_PTR_CF: key={source.AR_PTR_CF.USUBJID, source.AR_PTR_CF.CFRELCM}]*,[Source.AR_CM: key={source.AR_CM.USUBJID, source.AR_CM.CMTRT}]*",Derived,,RELREC_01.CM_JN_PR
FA_01,FA_LOA_CF,[TX]::[Source.AR_LOA_CF],Derived,,FA_01.FA_LOA_CF
FA_01,AR_LOA_CF,,Source,,FA_01.AR_LOA_CF
FA_01,FA_SMR_EX,[TX]::[Intermediate.FA_NOR_SMR],Derived,,FA_01.FA_SMR_EX
FA_01,FA_NOR_SMR,"[NM]::[Source.AR_SMR_EX: items={Item1,Item2,Item3,Item4,Item5,Item6}]",Derived,,FA_01.FA_NOR_SMR
EX_01,AR_SMR_EX,,Source,,EX_01.AR_SMR_EX
EX_01,EX_AR_SMR_EX,[TX]::[Source.AR_SMR_EX],Derived,,EX_01.EX_AR_SMR_EX
NV_01,NV_AR_SLEEP_EDT_NV,[TX]::[Source.AR_SLEEP_EDT_NV],Derived,,NV_01.NV_AR_SLEEP_EDT_NV
CO_01,AR_SLEEP_EDT_NV,,Source,,CO_01.AR_SLEEP_EDT_NV
CE_01,CE1_SC_FACE,"[SC]::[Intermediate.CE1_AG_CE: key={source.AR_VRCS_FA.USUBJID, source.AR_VRCS_FA.FAOBJ, source.AR_VRCS_FA.EPOCH, intermediate.CE1_TX_FA.ORRES, intermediate.CE1_AG_CE.CELOC, intermediate.CE1_AG_CE.CELAT, intermediate.CE1_AG_CE.CEDIR, source.AR_VRCS_FA.FADTC*}]",Derived,,CE_01.CE1_SC_FACE
CE_01,CE1_AG_CE,"[AG]::[Intermediate.CE1_SC_LOC: key={source.AR_VRCS_FA.USUBJID, source.AR_VRCS_FA.EPOCH, source.AR_VRCS_FA.FAOBJ, source.AR_VRCS_FA.FADTC, intermediate.CE1_SC_LOC.CELOC, intermediate.CE1_SC_LOC.CELAT, intermediate.CE1_SC_LOC.CEDIR, intermediate.CE1_TX_FA.FILTER*}]",Derived,,CE_01.CE1_AG_CE
CE_01,CE1_SC_LOC,"[SC]::[Intermediate.CE1_TX_FA: key={source.AR_VRCS_FA.USUBJID, source.AR_VRCS_FA.FADTC, source.AR_VRCS_FA.FAOBJ, intermediate.CE1_TX_FA.ORRES, intermediate.CE1_TX_FA.FALOC, intermediate.CE1_TX_FA.FALAT, intermediate.CE1_TX_FA.FADIR}]",Derived,,CE_01.CE1_SC_LOC
CE_01,CE1_TX_FA,"[TX]::[Source.AR_VRCS_FA: filter={((source.AR_VRCS_FA.FATESTCD in (""OCCUR"", ""SEV"")) && source.AR_VRCS_FA.FAORRES !="""" ||  (source.AR_VRCS_FA.FATESTCD ==""OCCUR"" && source.AR_VRCS_FA.FASTAT !="""" ) && source.AR_VRCS_FA.STUDYID!=""""}]",Derived,,CE_01.CE1_TX_FA
FA_01,AR_VRCS_FA,,Source,,FA_01.AR_VRCS_FA
CE_01,LDIAM1_JN_EPMAXNUM,"[JN]::[Intermediate.FINAL1_AGG: key={source.AR_VRCS_FA.USUBJID, source.AR_VRCS_FA.VISIT, source.AR_VRCS_FA.EPOCH, source.AR_VRCS_FA.FAOBJ}]*,[Intermediate.LDIAM1_AGG: key={intermediate.LDIAM1_AGG.LSUBJID, intermediate.LDIAM1_AGG.LVISIT, intermediate.LDIAM1_AGG.POCH, intermediate.LDIAM1_AGG.OBJ}]",Derived,,CE_01.LDIAM1_JN_EPMAXNUM
CE_01,CE1_AG_FACE,"[AG]::[Intermediate.CE1_SC_FACE: key={source.AR_VRCS_FA.USUBJID, source.AR_VRCS_FA.FAOBJ, source.AR_VRCS_FA.EPOCH, intermediate.CE1_SC_FACE.CELOC, intermediate.CE1_SC_FACE.CELAT, intermediate.CE1_SC_FACE.CEDIR, intermediate.CE1_TX_FA.ORRES}]",Derived,,CE_01.CE1_AG_FACE
CE_01,FINAL1_AGG,"[AG]::[Intermediate.CE1_AG_FACE: key={source.AR_VRCS_FA.USUBJID, source.AR_VRCS_FA.FAOBJ, source.AR_VRCS_FA.EPOCH, intermediate.CE1_AG_FACE.CELOC, intermediate.CE1_AG_FACE.CELAT, intermediate.CE1_AG_FACE.CEDIR, intermediate.CE1_AG_FACE.OCCUR*}]",Derived,,CE_01.FINAL1_AGG
CE_01,LDIAM1_AGG,"[AG]::[Source.AR_VRCS_FA: key={source.AR_VRCS_FA.USUBJID, source.AR_VRCS_FA.FATESTCD, source.AR_VRCS_FA.EPOCH, source.AR_VRCS_FA.FAOBJ} filter={source.AR_VRCS_FA.FATESTCD IN ('LDIAM','EPSDNUM')}]",Derived,,CE_01.LDIAM1_AGG
CE_01,CE2_TX_FA,"[TX]::[Source.AR_VRCI_FA: filter={((source.AR_VRCI_FA.FATESTCD in (""OCCUR"", ""SEV"")) && source.AR_VRCI_FA.FAORRES !="""" ||  (source.AR_VRCI_FA.FATESTCD ==""OCCUR"" && source.AR_VRCI_FA.FASTAT !="""" ) && source.AR_VRCI_FA.STUDYID!=""""}]",Derived,,CE_01.CE2_TX_FA
FA_01,AR_VRCI_FA,,Source,,FA_01.AR_VRCI_FA
EC_01,EC_AR_SMR_EX,[TX]::[Source.AR_SMR_EX],Derived,,EC_01.EC_AR_SMR_EX
CE_01,CE2_SC_FACE,"[SC]::[Intermediate.CE2_AG_CE: key={source.AR_VRCI_FA.USUBJID, source.AR_VRCI_FA.FAOBJ, source.AR_VRCI_FA.EPOCH, intermediate.CE2_TX_FA.ORRES, intermediate.CE2_SC_LOC.CELOC, intermediate.CE2_SC_LOC.CELAT, intermediate.CE2_SC_LOC.CEDIR, source.AR_VRCI_FA.FADTC*}]",Derived,,CE_01.CE2_SC_FACE
CE_01,CE2_AG_CE,"[AG]::[Intermediate.CE2_SC_LOC: key={source.AR_VRCI_FA.USUBJID, source.AR_VRCI_FA.EPOCH, source.AR_VRCI_FA.FAOBJ, source.AR_VRCI_FA.FADTC, intermediate.CE2_SC_LOC.CELOC, intermediate.CE2_SC_LOC.CELAT, intermediate.CE2_SC_LOC.CEDIR, intermediate.CE2_TX_FA.FILTER*}]",Derived,,CE_01.CE2_AG_CE
CE_01,CE2_SC_LOC,"[SC]::[Intermediate.CE2_TX_FA: key={source.AR_VRCI_FA.USUBJID, source.AR_VRCI_FA.FADTC, source.AR_VRCI_FA.FAOBJ, intermediate.CE2_TX_FA.ORRES, source.AR_VRCI_FA.FALOC, source.AR_VRCI_FA.FALAT, source.AR_VRCI_FA.FADIR}]",Derived,,CE_01.CE2_SC_LOC
FA_01,VRCI_FA_TX,[TX]::[Source.AR_VRCI_FA],Derived,,FA_01.VRCI_FA_TX
FA_01,VRCS_FA_TX,[TX]::[Source.AR_VRCS_FA],Derived,,FA_01.VRCS_FA_TX
CO_01,CO_AR_SLEEP_EDT_NV,[TX]::[Source.AR_SLEEP_EDT_NV],Derived,,CO_01.CO_AR_SLEEP_EDT_NV
QS_01,CL_CSD_QS,[TX]::[Intermediate.QS_JN_CSD],Derived,,QS_01.CL_CSD_QS
QS_01,QS_JN_CSD,"[JN]::[Intermediate.TX_CSD_QS: key={source.AR_CSD_QS.USUBJID}]*,[Intermediate.TX_VER_CSD_QS: key={intermediate.TX_VER_CSD_QS.USUB}]^",Derived,,QS_01.QS_JN_CSD
QS_01,TX_CSD_QS,[TX]::[Source.AR_CSD_QS: filter={upcase(source.AR_CSD_QS.QSTESTCD) != 'VERSION'}],Derived,,QS_01.TX_CSD_QS
QS_01,AR_CSD_QS,,Source,,QS_01.AR_CSD_QS
QS_01,TX_VER_CSD_QS,[TX]::[Source.AR_CSD_QS: filter={upcase(source.AR_CSD_QS.QSTESTCD) = 'VERSION'}],Derived,,QS_01.TX_VER_CSD_QS
QS_01,CL_LCQ_QS,[TX]::[Intermediate.QS_JN_LCQ],Derived,,QS_01.CL_LCQ_QS
QS_01,QS_JN_LCQ,"[JN]::[Intermediate.TX_LCQ_QS: key={source.AR_LCQ_QS.USUBJID}]*,[Intermediate.TX_VER_LCQ_QS: key={intermediate.TX_VER_LCQ_QS.USUB}]^",Derived,,QS_01.QS_JN_LCQ
QS_01,TX_LCQ_QS,[TX]::[Source.AR_LCQ_QS: filter={upcase(source.AR_LCQ_QS.QSTESTCD) != 'VERSION'}],Derived,,QS_01.TX_LCQ_QS
QS_01,AR_LCQ_QS,,Source,,QS_01.AR_LCQ_QS
QS_01,TX_VER_LCQ_QS,[TX]::[Source.AR_LCQ_QS: filter={upcase(source.AR_LCQ_QS.QSTESTCD) = 'VERSION'}],Derived,,QS_01.TX_VER_LCQ_QS
QS_01,CL_EQ5D5L_QS,[TX]::[Intermediate.QS_JN_EQ5D5L],Derived,,QS_01.CL_EQ5D5L_QS
QS_01,QS_JN_EQ5D5L,"[JN]::[Intermediate.TX_EQ5D5L_QS: key={source.AR_EQ5D5L_QS.USUBJID}]*,[Intermediate.TX_VER_EQ5D5L_QS: key={intermediate.TX_VER_EQ5D5L_QS.USUB}]^",Derived,,QS_01.QS_JN_EQ5D5L
QS_01,TX_EQ5D5L_QS,[TX]::[Source.AR_EQ5D5L_QS: filter={upcase(source.AR_EQ5D5L_QS.QSTESTCD) != 'VERSION'}],Derived,,QS_01.TX_EQ5D5L_QS
QS_01,AR_EQ5D5L_QS,,Source,,QS_01.AR_EQ5D5L_QS
QS_01,TX_VER_EQ5D5L_QS,[TX]::[Source.AR_EQ5D5L_QS: filter={upcase(source.AR_EQ5D5L_QS.QSTESTCD) = 'VERSION'}],Derived,,QS_01.TX_VER_EQ5D5L_QS
QS_01,CL_PGI_QS,[TX]::[Intermediate.QS_JN_PGI],Derived,,QS_01.CL_PGI_QS
QS_01,QS_JN_PGI,"[JN]::[Intermediate.TX_PGI_QS: key={source.AR_PGI_QS.USUBJID}]*,[Intermediate.TX_VER_PGI_QS: key={intermediate.TX_VER_PGI_QS.USUB}]^",Derived,,QS_01.QS_JN_PGI
QS_01,TX_PGI_QS,[TX]::[Source.AR_PGI_QS: filter={upcase(source.AR_PGI_QS.QSTESTCD) != 'VERSION'}],Derived,,QS_01.TX_PGI_QS
QS_01,AR_PGI_QS,,Source,,QS_01.AR_PGI_QS
QS_01,TX_VER_PGI_QS,[TX]::[Source.AR_PGI_QS: filter={upcase(source.AR_PGI_QS.QSTESTCD) = 'VERSION'}],Derived,,QS_01.TX_VER_PGI_QS
CE_01,LDIAM2_JN_EPMAXNUM,"[JN]::[Intermediate.FINAL2_AGG: key={source.AR_VRCI_FA.USUBJID, source.AR_VRCI_FA.VISIT, source.AR_VRCI_FA.EPOCH, source.AR_VRCI_FA.FAOBJ, source.AR_VRCI_FA.FALOC, source.AR_VRCI_FA.FALAT}]*,[Intermediate.LDIAM2_AGG: key={intermediate.LDIAM2_AGG.LSUBJID, intermediate.LDIAM2_AGG.LVISIT, intermediate.LDIAM2_AGG.POCH, intermediate.LDIAM2_AGG.OBJ, intermediate.LDIAM2_AGG.LOC, intermediate.LDIAM2_AGG.LAT}]",Derived,,CE_01.LDIAM2_JN_EPMAXNUM
CE_01,FINAL2_AGG,"[AG]::[Intermediate.CE2_AG_FACE: key={source.AR_VRCI_FA.USUBJID, source.AR_VRCI_FA.FAOBJ, source.AR_VRCI_FA.EPOCH, intermediate.CE2_AG_FACE.CELOC, intermediate.CE2_AG_FACE.CELAT, intermediate.CE2_AG_FACE.CEDIR, intermediate.CE2_AG_FACE.OCCUR*}]",Derived,,CE_01.FINAL2_AGG
CE_01,CE2_AG_FACE,"[AG]::[Intermediate.CE2_SC_FACE: key={source.AR_VRCI_FA.USUBJID, source.AR_VRCI_FA.FAOBJ, source.AR_VRCI_FA.EPOCH, intermediate.CE2_SC_FACE.CELOC, intermediate.CE2_SC_FACE.CELAT, intermediate.CE2_SC_FACE.CEDIR, intermediate.CE2_TX_FA.ORRES}]",Derived,,CE_01.CE2_AG_FACE
CE_01,LDIAM2_AGG,"[AG]::[Source.AR_VRCI_FA: key={source.AR_VRCI_FA.USUBJID, source.AR_VRCI_FA.FATESTCD, source.AR_VRCI_FA.EPOCH, source.AR_VRCI_FA.FAOBJ, source.AR_VRCI_FA.FALOC, source.AR_VRCI_FA.FALAT} filter={source.AR_VRCI_FA.FATESTCD IN ('LDIAM','EPSDNUM')}]",Derived,,CE_01.LDIAM2_AGG
RE_01,CL_IFMA_RE,[TX]::[Source.AR_IFMA_RE],Derived,,RE_01.CL_IFMA_RE
RE_01,AR_IFMA_RE,,Source,,RE_01.AR_IFMA_RE
DU_01,CL_IFMA_DU,[TX]::[Source.AR_IFMA_DU],Derived,,DU_01.CL_IFMA_DU
DU_01,AR_IFMA_DU,,Source,,DU_01.AR_IFMA_DU
DU_01,CL_TEMP_IFMA,[TX]::[Source.AR_IFMA_DU: filter={1=2}],Derived,,DU_01.CL_TEMP_IFMA
DU_01,DU_MER,"[MG]::[DU.PART_CL_IFMA_DU],[DU.PART_CL_TEMP_IFMA]",Derived,,DU_01.DU_MER
CO_01,CO_PRG02_PX,[TX]::[Source.AR_PRG02_PX],Derived,,CO_01.CO_PRG02_PX
CE_01,CL_CE_CEA_CE,[TX]::[Source.AR_CEA_CE],Derived,,CE_01.CL_CE_CEA_CE
CE_01,AR_CEA_CE,,Source,,CE_01.AR_CEA_CE
DS_01,CL_SRR_DS,[TX]::[Source.AR_SRR_DS],Derived,,DS_01.CL_SRR_DS
DS_01,AR_SRR_DS,,Source,,DS_01.AR_SRR_DS
SC_01,CL_SRR_SC,[TX]::[Source.AR_SRR_SC],Derived,,SC_01.CL_SRR_SC
SC_01,AR_SRR_SC,,Source,,SC_01.AR_SRR_SC
IS_01,IS_PD3_JN,"[JN]::[Intermediate.PD3_BS_IS_TX: key={source.AR_PD3_BS.STUDYID, source.AR_PD3_BS.USUBJID, source.AR_PD3_BS.BSREFID}]*,[Intermediate.IS_PD3_ANALYT: key={intermediate.IS_PD3_ANALYT.STUDY, intermediate.IS_PD3_ANALYT.UBJID, intermediate.IS_PD3_ANALYT.REFID}]",Derived,,IS_01.IS_PD3_JN
IS_01,PD3_BS_IS_TX,[TX]::[Source.AR_PD3_BS: filter={source.AR_PD3_BS.BSTESTCD != 'ANALYT'}],Derived,,IS_01.PD3_BS_IS_TX
IS_01,AR_PD3_BS,,Source,,IS_01.AR_PD3_BS
IS_01,IS_PD3_ANALYT,[TX]::[Source.AR_PD3_BS: filter={source.AR_PD3_BS.BSTESTCD = 'ANALYT'}],Derived,,IS_01.IS_PD3_ANALYT
LB_01,LB_PD3_JN,"[JN]::[Intermediate.PD3_BS_LB_TX: key={intermediate.PD3_BS_LB_TX.STUDYID, intermediate.PD3_BS_LB_TX.USUBJID, intermediate.PD3_BS_LB_TX.BSREFID}]*,[Intermediate.LB_PD3_ANALYT: key={intermediate.LB_PD3_ANALYT.STUDY, intermediate.LB_PD3_ANALYT.UBJID, intermediate.LB_PD3_ANALYT.REFID}]",Derived,,LB_01.LB_PD3_JN
LB_01,PD3_BS_LB_TX,[TX]::[Source.AR_PD3_BS: filter={source.AR_PD3_BS.BSTESTCD != 'ANALYT'}],Derived,,LB_01.PD3_BS_LB_TX
LB_01,LB_PD3_ANALYT,[TX]::[Source.AR_PD3_BS: filter={source.AR_PD3_BS.BSTESTCD = 'ANALYT'}],Derived,,LB_01.LB_PD3_ANALYT
RS_01,CL_RS_PTR_CF,[TX]::[Source.AR_PTR_CF],Derived,,RS_01.CL_RS_PTR_CF
CC_01,CL_APC2_QS,[TX]::[Intermediate.TX_JN_APC2_CC],Derived,,CC_01.CL_APC2_QS
CC_01,TX_JN_APC2_CC,"[JN]::[Intermediate.TX_APC2_CC: key={source.AR_APC2_QS.USUBJID, source.AR_APC2_QS.QSDTC}]*,[Intermediate.TX_VER_APC2_CC: key={intermediate.TX_VER_APC2_CC.USUB, intermediate.TX_VER_APC2_CC.DTC}]",Derived,,CC_01.TX_JN_APC2_CC
CC_01,TX_APC2_CC,[TX]::[Source.AR_APC2_QS: filter={upcase(source.AR_APC2_QS.QSTESTCD) != 'VERSION'}],Derived,,CC_01.TX_APC2_CC
CC_01,AR_APC2_QS,,Source,,CC_01.AR_APC2_QS
CC_01,TX_VER_APC2_CC,[TX]::[Source.AR_APC2_QS: filter={upcase(source.AR_APC2_QS.QSTESTCD) = 'VERSION'}],Derived,,CC_01.TX_VER_APC2_CC
APRP_01,APRP_PRG04_FE,[TX]::[Intermediate.APRP_NOR_PRG04_FE],Derived,,APRP_01.APRP_PRG04_FE
APRP_01,APRP_NOR_PRG04_FE,"[NM]::[Source.AR_PRG04_FE: items={Item1,Item2,Item3,Item4}]",Derived,,APRP_01.APRP_NOR_PRG04_FE
APRP_01,AR_PRG04_FE,,Source,,APRP_01.AR_PRG04_FE
APCO_01,APCO_PRG04_FE,[TX]::[Source.AR_PRG04_FE],Derived,,APCO_01.APCO_PRG04_FE
QS_01,CL_BASFI_EDT_QS,[TX]::[Source.AR_BASFI_EDT_QS],Derived,,QS_01.CL_BASFI_EDT_QS
QS_01,AR_BASFI_EDT_QS,,Source,,QS_01.AR_BASFI_EDT_QS
QS_01,QS_BASDAI_EDT_QS,[TX]::[Intermediate.TX_JN_BASDAI_EDT_QS],Derived,,QS_01.QS_BASDAI_EDT_QS
QS_01,TX_JN_BASDAI_EDT_QS,"[JN]::[Intermediate.TX_BASDIA_EDT_QS: key={source.AR_BASDAI_EDT_QS.USUBJID}]*,[Intermediate.QS_VER_BASDAI_EDT_QS: key={intermediate.TX_VER_BASDAI_EDT_QS.UBJID}]^",Derived,,QS_01.TX_JN_BASDAI_EDT_QS
QS_01,TX_BASDIA_EDT_QS,[TX]::[Source.AR_BASDAI_EDT_QS: filter={upcase(source.AR_BASDAI_EDT_QS.QSTESTCD) != 'VERSION'}],Derived,,QS_01.TX_BASDIA_EDT_QS
QS_01,AR_BASDAI_EDT_QS,,Source,,QS_01.AR_BASDAI_EDT_QS
QS_01,QS_VER_BASDAI_EDT_QS,[TX]::[Source.AR_BASDAI_EDT_QS: filter={upcase(source.AR_BASDAI_EDT_QS.QSTESTCD) = 'VERSION'}],Derived,,QS_01.QS_VER_BASDAI_EDT_QS
MK_01,MK_OUT,"[MG]::[MK.PART_CL_DEXA_EDT_MK],[MK.PART_MK_AXSPC_EDT_FA]",Derived,,MK_01.MK_OUT
MK_01,MK_AXSPC_EDT_FA,[TX]::[Source.AR_AXSPC_EDT_FA],Derived,,MK_01.MK_AXSPC_EDT_FA
MK_01,AR_AXSPC_EDT_FA,,Source,,MK_01.AR_AXSPC_EDT_FA
QS_01,CL_GADI_EDT_QS,[TX]::[Intermediate.TX_JN_GADI_EDT],Derived,,QS_01.CL_GADI_EDT_QS
QS_01,TX_JN_GADI_EDT,"[JN]::[Intermediate.TX_GADI_EDT_QS: key={source.AR_GADI_EDT_QS.USUBJID}]*,[Intermediate.TX_VER_GADI_EDT_QS: key={intermediate.TX_VER_GADI_EDT.USUB}]^",Derived,,QS_01.TX_JN_GADI_EDT
QS_01,TX_GADI_EDT_QS,[TX]::[Source.AR_GADI_EDT_QS: filter={upcase(source.AR_GADI_EDT_QS.QSTESTCD) != 'VERSION'}],Derived,,QS_01.TX_GADI_EDT_QS
QS_01,AR_GADI_EDT_QS,,Source,,QS_01.AR_GADI_EDT_QS
QS_01,TX_VER_GADI_EDT_QS,[TX]::[Source.AR_GADI_EDT_QS: filter={upcase(source.AR_GADI_EDT_QS.QSTESTCD) = 'VERSION'}],Derived,,QS_01.TX_VER_GADI_EDT_QS
QS_01,QS_CL_PGD_EDT_QS,[TX]::[Intermediate.QS_JN_PGD_EDT_QS],Derived,,QS_01.QS_CL_PGD_EDT_QS
QS_01,QS_JN_PGD_EDT_QS,"[JN]::[Intermediate.QS_PGD_EDT_QS: key={source.AR_PGD_EDT_QS.USUBJID}]*,[Intermediate.QS_VER_PGD_EDT_QS: key={intermediate.QS_VER_PGD_EDT_QS.UBJID}]^",Derived,,QS_01.QS_JN_PGD_EDT_QS
QS_01,QS_PGD_EDT_QS,[TX]::[Source.AR_PGD_EDT_QS: filter={upcase (source.AR_PGD_EDT_QS.QSTESTCD) != 'VERSION'}],Derived,,QS_01.QS_PGD_EDT_QS
QS_01,AR_PGD_EDT_QS,,Source,,QS_01.AR_PGD_EDT_QS
QS_01,QS_VER_PGD_EDT_QS,[TX]::[Source.AR_PGD_EDT_QS: filter={upcase(source.AR_PGD_EDT_QS.QSTESTCD) = 'VERSION'}],Derived,,QS_01.QS_VER_PGD_EDT_QS
QS_01,CL_TBP_EDT_QS,[TX]::[Intermediate.TX_JN_TBP_EDT],Derived,,QS_01.CL_TBP_EDT_QS
QS_01,TX_JN_TBP_EDT,"[JN]::[Intermediate.TX_TBP_EDT_QS: key={source.AR_TBP_EDT_QS.USUBJID}]*,[Intermediate.TX_VER_TBP_EDT_QS: key={intermediate.TX_VER_TBP_EDT.USUB}]^",Derived,,QS_01.TX_JN_TBP_EDT
QS_01,TX_TBP_EDT_QS,[TX]::[Source.AR_TBP_EDT_QS: filter={upcase(source.AR_TBP_EDT_QS.QSTESTCD) != 'VERSION'}],Derived,,QS_01.TX_TBP_EDT_QS
QS_01,AR_TBP_EDT_QS,,Source,,QS_01.AR_TBP_EDT_QS
QS_01,TX_VER_TBP_EDT_QS,[TX]::[Source.AR_TBP_EDT_QS: filter={upcase(source.AR_TBP_EDT_QS.QSTESTCD) = 'VERSION'}],Derived,,QS_01.TX_VER_TBP_EDT_QS
APDD_01,APDD_MER,"[MG]::[APDD.PART_APDD_SAEP_FE],[APDD.PART_APDD_SAEI_FE]",Derived,,APDD_01.APDD_MER
APHO_01,APHO_SAEP_FE,[TX]::[Source.AR_SAEP_FE: filter={source.AR_SAEP_FE.FETERM = 'HOSPITAL'}],Derived,,APHO_01.APHO_SAEP_FE
APCO_01,APCO_NOR_SAEP_FE,"[NM]::[Source.AR_SAEP_FE: items={Item1,Item2,Item3,Item4,Item5,Item6,Item7,Item8}]",Derived,,APCO_01.APCO_NOR_SAEP_FE
PC_02,PK2_VOL,"[TX]::[Source.AR_PK2_BS: filter={source.AR_PK2_BS.BSTESTCD IN (""VOLUME"", ""CELLNUM"",""TOTVOLS"",""TOTWTS"")}]",Derived,,PC_02.PK2_VOL
PC_02,AR_PK2_BS,,Source,,PC_02.AR_PK2_BS
PC_02,CL_PK2_PC,[TX]::[Intermediate.PK2_JN_PKPC_EDT],Derived,,PC_02.CL_PK2_PC
PC_02,PK2_JN_PKPC_EDT,"[JN]::[Source.AR_PKPC_EDT_PC: key={source.AR_PKPC_EDT_PC.USUBJID, upcase(source.AR_PKPC_EDT_PC.PCREFID)}],[Source.AR_PK2_BS: key={source.AR_PK2_BS.USUBJID, upcase(source.AR_PK2_BS.BSREFID)} filter={source.AR_PK2_BS.BSTESTCD in('ANALYT1','ANALYT2','ANALYT3','ANALYT4','ANALYT5','ANALYT6','ANALYT7','ANALYT8','ANALYT9','ANALYT10','ANALYT','SPCLSTAT','SCOLSTAT','RSCLNSNT')}]",Derived,,PC_02.PK2_JN_PKPC_EDT
APHO_01,APHO_MER,"[MG]::[APHO.PART_APHO_SAEP_FE],[APHO.PART_APHO_SAEI_FE]",Derived,,APHO_01.APHO_MER
APFA_01,APFA_SAEP_FF,[TX]::[Intermediate.SAEPJNFE_FF],Derived,,APFA_01.APFA_SAEP_FF
APCO_01,APCO_NOR_SAEI_FE,"[NM]::[Source.AR_SAEI_FE: items={Item1,Item2,Item3,Item4,Item5,Item6,Item7,Item8}]",Derived,,APCO_01.APCO_NOR_SAEI_FE
FA_02,FA_LACT_FF,"[TX]::[Source.AR_LACT_FF: filter={source.AR_LACT_FF.FFTESTCD not in ('WEIGHT', 'WTPRCNTL', 'HEIGHT', 'HTPRCNTL')}]",Derived,,FA_02.FA_LACT_FF
APVS_01,AR_LACT_FF,,Source,,APVS_01.AR_LACT_FF
APVS_01,APVS_LACT_FF,"[TX]::[Source.AR_LACT_FF: filter={source.AR_LACT_FF.FFTESTCD in ('WEIGHT', 'HEIGHT')}]",Derived,,APVS_01.APVS_LACT_FF
APDM_01,APDM_LACT_FE,[TX]::[Source.AR_LACT_FE],Derived,,APDM_01.APDM_LACT_FE
APDM_01,AR_LACT_FE,,Source,,APDM_01.AR_LACT_FE
APML_01,APML_LACT_FE,[TX]::[Source.AR_LACT_FE],Derived,,APML_01.APML_LACT_FE
APML_01,ML_OUT,[MG]::,Derived,,APML_01.ML_OUT
APML_01,TEMP_APML_LACT,[TX]::[Source.AR_LACT_FE],Derived,,APML_01.TEMP_APML_LACT
CC_01,CC_CPIS_QS,[TX]::[Intermediate.TX_JN_CPIS_QS],Derived,,CC_01.CC_CPIS_QS
CC_01,TX_JN_CPIS_QS,"[JN]::[Intermediate.TX_CPIS_QS: key={source.AR_CPIS_QS.USUBJID}]*,[Intermediate.TX_VER_CPIS_QS: key={intermediate.TX_VER_CPIS_QS.USUJID}]",Derived,,CC_01.TX_JN_CPIS_QS
CC_01,TX_CPIS_QS,[TX]::[Source.AR_CPIS_QS: filter={upcase(source.AR_CPIS_QS.QSTESTCD) != 'VERSION'}],Derived,,CC_01.TX_CPIS_QS
CC_01,AR_CPIS_QS,,Source,,CC_01.AR_CPIS_QS
CC_01,TX_VER_CPIS_QS,[TX]::[Source.AR_CPIS_QS: filter={upcase(source.AR_CPIS_QS.QSTESTCD)  = 'VERSION'}],Derived,,CC_01.TX_VER_CPIS_QS
QS_02,CL_PI_EDT_QS,[TX]::[Intermediate.TX_JN_PI_EDT],Derived,,QS_02.CL_PI_EDT_QS
QS_02,TX_JN_PI_EDT,"[JN]::[Intermediate.TX_PI_EDT_QS: key={source.AR_PI_EDT_QS.USUBJID}]*,[Intermediate.TX_VER_PI_EDT_QS: key={intermediate.TX_VER_PI_EDT_QS.USBJID}]^",Derived,,QS_02.TX_JN_PI_EDT
QS_02,TX_PI_EDT_QS,[TX]::[Source.AR_PI_EDT_QS: filter={upcase( source.AR_PI_EDT_QS.QSTESTCD) != 'VERSION'}],Derived,,QS_02.TX_PI_EDT_QS
QS_02,AR_PI_EDT_QS,,Source,,QS_02.AR_PI_EDT_QS
QS_02,TX_VER_PI_EDT_QS,[TX]::[Source.AR_PI_EDT_QS: filter={upcase( source.AR_PI_EDT_QS.QSTESTCD) = 'VERSION'}],Derived,,QS_02.TX_VER_PI_EDT_QS
LB_01,MER_PD,[MG]::[Intermediate.LB_01_TX_AR_PD_BS],Derived,,LB_01.MER_PD
LB_01,LB_01_TX_AR_PD_BS,[TX]::[Source.AR_PD_BS],Derived,,LB_01.LB_01_TX_AR_PD_BS
RP_01,CL_SXA1_RP,[TX]::[Source.AR_SXA1_RP],Derived,,RP_01.CL_SXA1_RP
RP_01,AR_SXA1_RP,,Source,,RP_01.AR_SXA1_RP
RP_01,CL_SXHX_RP,[TX]::[Source.AR_SXHX_RP],Derived,,RP_01.CL_SXHX_RP
RP_01,AR_SXHX_RP,,Source,,RP_01.AR_SXHX_RP
CC_01,CL_TSF_CC,[TX]::[Source.AR_TSF_CC],Derived,,CC_01.CL_TSF_CC
CC_01,AR_TSF_CC,,Source,,CC_01.AR_TSF_CC
CC_01,CL_TSM_CC,[TX]::[Source.AR_TSM_CC],Derived,,CC_01.CL_TSM_CC
CC_01,AR_TSM_CC,,Source,,CC_01.AR_TSM_CC
LB_01,CL_FSG_LB,[TX]::[Source.AR_FSG_LB],Derived,,LB_01.CL_FSG_LB
LB_01,AR_FSG_LB,,Source,,LB_01.AR_FSG_LB
LB_01,LB_GC_LB,[TX]::[Source.AR_GC_LB],Derived,,LB_01.LB_GC_LB
LB_01,AR_GC_LB,,Source,,LB_01.AR_GC_LB
CE_02,CL_HA_CE,[TX]::[Source.AR_HA_CE],Derived,,CE_02.CL_HA_CE
CE_02,AR_HA_CE,,Source,,CE_02.AR_HA_CE
FA_02,FA_SSP_CF,[TX]::[Source.AR_SSP_CF],Derived,,FA_02.FA_SSP_CF
FA_02,AR_SSP_CF,,Source,,FA_02.AR_SSP_CF
FA_02,CL_HA_CF,[TX]::[Source.AR_HA_CF],Derived,,FA_02.CL_HA_CF
FA_02,AR_HA_CF,,Source,,FA_02.AR_HA_CF
SC_01,CL_AGI_SC,[TX]::[Source.AR_AGI_SC],Derived,,SC_01.CL_AGI_SC
SC_01,AR_AGI_SC,,Source,,SC_01.AR_AGI_SC
FA_02,CL_NOR_SMLS_FA,"[NM]::[Source.AR_SMLS_EX: items={Item1,Item2}]",Derived,,FA_02.CL_NOR_SMLS_FA
EX_01,AR_SMLS_EX,,Source,,EX_01.AR_SMLS_EX
FA_02,CL_SMLS_TX_FA,[TX]::[Intermediate.CL_NOR_SMLS_FA],Derived,,FA_02.CL_SMLS_TX_FA
EX_01,CL_SMLS_EX,[TX]::[Source.AR_SMLS_EX],Derived,,EX_01.CL_SMLS_EX
EC_01,CL_SMLS_EC,[TX]::[Source.AR_SMLS_EX],Derived,,EC_01.CL_SMLS_EC
QS_02,CL_SDM_QS,[TX]::[Intermediate.TX_JN_SDM_QS],Derived,,QS_02.CL_SDM_QS
QS_02,TX_JN_SDM_QS,"[JN]::[Intermediate.TX_SDM_QS: key={source.AR_SDM_QS.USUBJID}]*,[Intermediate.TX_VER_SDM_QS: key={intermediate.TX_VER_SDM_QS.USUB}]^",Derived,,QS_02.TX_JN_SDM_QS
QS_02,TX_SDM_QS,[TX]::[Source.AR_SDM_QS: filter={upcase( source.AR_SDM_QS.QSTESTCD) != 'VERSION'}],Derived,,QS_02.TX_SDM_QS
QS_02,AR_SDM_QS,,Source,,QS_02.AR_SDM_QS
QS_02,TX_VER_SDM_QS,[TX]::[Source.AR_SDM_QS: filter={upcase( source.AR_SDM_QS.QSTESTCD) = 'VERSION'}],Derived,,QS_02.TX_VER_SDM_QS
PF_01,CL_RHHIV_PF,[TX]::[Source.AR_RHHIV_PF],Derived,,PF_01.CL_RHHIV_PF
PF_01,AR_RHHIV_PF,,Source,,PF_01.AR_RHHIV_PF
QS_02,CL_FAHI_QS,[TX]::[Intermediate.TX_JN_FAHI_QS],Derived,,QS_02.CL_FAHI_QS
QS_02,TX_JN_FAHI_QS,"[JN]::[Intermediate.TX_FAHI_QS: key={source.AR_FAHI_QS.USUBJID}]*,[Intermediate.TX_VER_FAHI_QS: key={intermediate.TX_VER_FAHI_QS.UBJID}]^",Derived,,QS_02.TX_JN_FAHI_QS
QS_02,TX_FAHI_QS,[TX]::[Source.AR_FAHI_QS: filter={upcase(source.AR_FAHI_QS.QSTESTCD) != 'VERSION'}],Derived,,QS_02.TX_FAHI_QS
QS_02,AR_FAHI_QS,,Source,,QS_02.AR_FAHI_QS
QS_02,TX_VER_FAHI_QS,[TX]::[Source.AR_FAHI_QS: filter={upcase( source.AR_FAHI_QS.QSTESTCD) = 'VERSION'}],Derived,,QS_02.TX_VER_FAHI_QS
QS_02,CL_HIVTS_QS,[TX]::[Intermediate.TX_JN_HIVTS_QS],Derived,,QS_02.CL_HIVTS_QS
QS_02,TX_JN_HIVTS_QS,"[JN]::[Intermediate.TX_HIVTS_QS: key={source.AR_HIVTS_QS.USUBJID}]*,[Intermediate.TX_VER_HIVTS_QS: key={intermediate.TX_VER_HIVTS_QS.UBJID}]^",Derived,,QS_02.TX_JN_HIVTS_QS
QS_02,TX_HIVTS_QS,[TX]::[Source.AR_HIVTS_QS: filter={upcase(source.AR_HIVTS_QS.QSTESTCD) != 'VERSION'}],Derived,,QS_02.TX_HIVTS_QS
QS_02,AR_HIVTS_QS,,Source,,QS_02.AR_HIVTS_QS
QS_02,TX_VER_HIVTS_QS,[TX]::[Source.AR_HIVTS_QS: filter={upcase( source.AR_HIVTS_QS.QSTESTCD) = 'VERSION'}],Derived,,QS_02.TX_VER_HIVTS_QS
BS_01,CL_HIST_EDT_PH,[TX]::[Source.AR_HIST_EDT_PH: filter={upcase(source.AR_HIST_EDT_PH.PHTESTCD) = 'SLIDETHK'}],Derived,,BS_01.CL_HIST_EDT_PH
BS_01,AR_HIST_EDT_PH,,Source,,BS_01.AR_HIST_EDT_PH
MI_01,CL_AR_HIST_EDT_PH,"[TX]::[Source.AR_HIST_EDT_PH: filter={upcase(source.AR_HIST_EDT_PH.PHTESTCD not in (""SLDCUTDT"",""SLSTNDT"",""FRMLNRDT"",""SLIDETHK"")}]",Derived,,MI_01.CL_AR_HIST_EDT_PH
BE_01,CL_BE_HIST_EDT_PH,[TX]::[Source.AR_HIST_EDT_PH],Derived,,BE_01.CL_BE_HIST_EDT_PH
FA_02,CL_FA_HOAT_FA,[TX]::[Source.AR_HOAT_FA],Derived,,FA_02.CL_FA_HOAT_FA
FA_02,AR_HOAT_FA,,Source,,FA_02.AR_HOAT_FA
CE_02,CL_CE_HOAT_CE,[TX]::[Source.AR_HOAT_CE],Derived,,CE_02.CL_CE_HOAT_CE
CE_02,AR_HOAT_CE,,Source,,CE_02.AR_HOAT_CE
RELREC_02,RELCEAER_NOR_HOAT_CE,"[NM]::[Intermediate.RELCEAER_SCAN_HOAT_CE: items={Item1,Item2}]",Derived,,RELREC_02.RELCEAER_NOR_HOAT_CE
RELREC_02,RELCEAER_SCAN_HOAT_CE,[SC]::[Intermediate.RELCEAER_JN_HOAT_CE: key={source.AR_AE.USUBJID}],Derived,,RELREC_02.RELCEAER_SCAN_HOAT_CE
RELREC_02,RELCEAER_JN_HOAT_CE,"[JN]::[Source.AR_AE: key={source.AR_AE.USUBJID, source.AR_AE.AESPID}]*,[Source.AR_HOAT_CE: key={source.AR_HOAT_CE.USUBJID, source.AR_HOAT_CE.RELCEAER}]*",Derived,,RELREC_02.RELCEAER_JN_HOAT_CE
RELREC_02,RELCEAEA_NOR_HOAT_CE,"[NM]::[Intermediate.RELCEAEA_SCAN_HOAT_CE: items={Item1,Item2}]",Derived,,RELREC_02.RELCEAEA_NOR_HOAT_CE
RELREC_02,RELCEAEA_SCAN_HOAT_CE,[SC]::[Intermediate.RELCEAEA_JN_HOAT_CE: key={source.AR_AE.USUBJID}],Derived,,RELREC_02.RELCEAEA_SCAN_HOAT_CE
RELREC_02,RELCEAEA_JN_HOAT_CE,"[JN]::[Source.AR_AE: key={source.AR_AE.USUBJID, source.AR_AE.AESPID}]*,[Source.AR_HOAT_CE: key={source.AR_HOAT_CE.USUBJID, source.AR_HOAT_CE.RELCEAEA}]*",Derived,,RELREC_02.RELCEAEA_JN_HOAT_CE
RELREC_02,RELCEAEC_NOR_HOAT_CE,"[NM]::[Intermediate.RELCEAEC_SCAN_HOAT_CE: items={Item1,Item2}]",Derived,,RELREC_02.RELCEAEC_NOR_HOAT_CE
RELREC_02,RELCEAEC_SCAN_HOAT_CE,[SC]::[Intermediate.RELCEAEC_JN_HOAT_CE: key={source.AR_AE.USUBJID}],Derived,,RELREC_02.RELCEAEC_SCAN_HOAT_CE
RELREC_02,RELCEAEC_JN_HOAT_CE,"[JN]::[Source.AR_AE: key={source.AR_AE.USUBJID, source.AR_AE.AESPID}]*,[Source.AR_HOAT_CE: key={source.AR_HOAT_CE.USUBJID, source.AR_HOAT_CE.RELCEAEC}]*",Derived,,RELREC_02.RELCEAEC_JN_HOAT_CE
RELREC_02,RELCECMA_NOR_HOAT_CE,"[NM]::[Intermediate.RELCECMA_SCAN_HOAT_CE: items={Item1,Item2}]",Derived,,RELREC_02.RELCECMA_NOR_HOAT_CE
RELREC_02,RELCECMA_SCAN_HOAT_CE,[SC]::[Intermediate.RELCECMA_JN_HOAT_CE: key={source.AR_AE.USUBJID}],Derived,,RELREC_02.RELCECMA_SCAN_HOAT_CE
RELREC_02,RELCECMA_JN_HOAT_CE,"[JN]::[Source.AR_AE: key={source.AR_AE.USUBJID, source.AR_AE.AESPID}]*,[Source.AR_HOAT_CE: key={source.AR_HOAT_CE.USUBJID, source.AR_HOAT_CE.RELCECMA}]*",Derived,,RELREC_02.RELCECMA_JN_HOAT_CE
RELREC_02,RELCECMC_NOR_HOAT_CE,"[NM]::[Intermediate.RELCECMC_SCAN_HOAT_CE: items={Item1,Item2}]",Derived,,RELREC_02.RELCECMC_NOR_HOAT_CE
RELREC_02,RELCECMC_SCAN_HOAT_CE,[SC]::[Intermediate.RELCECMC_JN_HOAT_CE: key={source.AR_AE.USUBJID}],Derived,,RELREC_02.RELCECMC_SCAN_HOAT_CE
RELREC_02,RELCECMC_JN_HOAT_CE,"[JN]::[Source.AR_AE: key={source.AR_AE.USUBJID, source.AR_AE.AESPID}]*,[Source.AR_HOAT_CE: key={source.AR_HOAT_CE.USUBJID, source.AR_HOAT_CE.RELCECMC}]*",Derived,,RELREC_02.RELCECMC_JN_HOAT_CE
FA_02,CL_HOAP_FA,[TX]::[Source.AR_HOAP_FA],Derived,,FA_02.CL_HOAP_FA
FA_02,AR_HOAP_FA,,Source,,FA_02.AR_HOAP_FA
CE_02,CL_HOAP_CE,[TX]::[Source.AR_HOAP_CE],Derived,,CE_02.CL_HOAP_CE
CE_02,AR_HOAP_CE,,Source,,CE_02.AR_HOAP_CE
RELREC_02,CFRELAE_NOR_HA_CF,"[NM]::[Intermediate.CFRELAE_SCAN_HA_CF: items={Item1,Item2}]",Derived,,RELREC_02.CFRELAE_NOR_HA_CF
RELREC_02,CFRELAE_SCAN_HA_CF,[SC]::[Intermediate.CFRELAE_JN_HA_CF: key={source.AR_HA_CF.USUBJID}],Derived,,RELREC_02.CFRELAE_SCAN_HA_CF
RELREC_02,CFRELAE_JN_HA_CF,"[JN]::[Source.AR_AE: key={source.AR_AE.USUBJID, source.AR_AE.AESPID}]*,[Source.AR_HA_CF: key={source.AR_HA_CF.USUBJID, source.AR_HA_CF.CFRELAE}]*",Derived,,RELREC_02.CFRELAE_JN_HA_CF
RELREC_02,CFRELCM_NOR_HA_CF,"[NM]::[Intermediate.CFRELCM_SCAN_HA_CF: items={Item1,Item2}]",Derived,,RELREC_02.CFRELCM_NOR_HA_CF
RELREC_02,CFRELCM_SCAN_HA_CF,[SC]::[Intermediate.CFRELCM_JN_HA_CF: key={source.AR_HA_CF.USUBJID}],Derived,,RELREC_02.CFRELCM_SCAN_HA_CF
RELREC_02,CFRELCM_JN_HA_CF,"[JN]::[Source.AR_HA_CF: key={source.AR_HA_CF.USUBJID, source.AR_HA_CF.CFRELCM}]*,[Source.AR_CM: key={source.AR_CM.USUBJID, source.AR_CM.CMSPID}]*",Derived,,RELREC_02.CFRELCM_JN_HA_CF
RELREC_02,CFRELLB_JN_HA_CF,"[JN]::[Source.AR_HA_CF: key={source.AR_HA_CF.USUBJID, source.AR_HA_CF.CFRELLB}]*,[Source.AR_FSG_LB: key={source.AR_FSG_LB.USUBJID, source.AR_FSG_LB.LBSPID}]*",Derived,,RELREC_02.CFRELLB_JN_HA_CF
MI_01,MER_MI,"[MG]::[MI.PART_AR_HIST_EDT_PH],[MI.PART_CL_SLAB_PH]",Derived,,MI_01.MER_MI
BE_01,MER_BE,"[MG]::[BE.PART_PD_BE],[BE.PART_BE_HIST_EDT_PH]",Derived,,BE_01.MER_BE
RELREC_02,CFRELLB_NOR_HA_CF,"[NM]::[Intermediate.CFRELLB_SCAN_HA_CF: items={Item1,Item2}]",Derived,,RELREC_02.CFRELLB_NOR_HA_CF
RELREC_02,CFRELLB_SCAN_HA_CF,[SC]::[Intermediate.CFRELLB_JN_HA_CF: key={source.AR_HA_CF.USUBJID}],Derived,,RELREC_02.CFRELLB_SCAN_HA_CF
QS_01,TX_VER_RAT_PAA2,"[TX]::[Source.AR_PAA2_QS: filter={upcase(source.AR_PAA2_QS.QSTESTCD) not in ('VERSION', 'RATER', 'PAA201')}]",Derived,,QS_01.TX_VER_RAT_PAA2
QS_02,CL_WPAI_EDT_QS,[TX]::[Intermediate.TX_JN_WPAI_EDT_QS],Derived,,QS_02.CL_WPAI_EDT_QS
QS_02,TX_JN_WPAI_EDT_QS,"[JN]::[Intermediate.TX_WPAI_EDT_QS: key={source.AR_WPAI_EDT_QS.USUBJID}]*,[Intermediate.TX_VER_WPAI_EDT: key={intermediate.TX_VER_WPAI_EDT.USUBJ}]^",Derived,,QS_02.TX_JN_WPAI_EDT_QS
QS_02,TX_WPAI_EDT_QS,[TX]::[Source.AR_WPAI_EDT_QS: filter={upcase(source.AR_WPAI_EDT_QS.QSTESTCD) != 'VERSION'}],Derived,,QS_02.TX_WPAI_EDT_QS
QS_02,AR_WPAI_EDT_QS,,Source,,QS_02.AR_WPAI_EDT_QS
QS_02,TX_VER_WPAI_EDT,[TX]::[Source.AR_WPAI_EDT_QS: filter={upcase(source.AR_WPAI_EDT_QS.QSTESTCD) = 'VERSION'}],Derived,,QS_02.TX_VER_WPAI_EDT
