Process Area,Data Stream,Variable Name,Variable Type,Variable Length,Derivation,Sdtm Mapping,IDVAR,QEVAL,Comments,Key Value
DM_01,CL_TX_DM,STUDYID,Char,12,source.AR_DM.STUDYID,DM.STUDYID,,,,DM_01.CL_TX_DM.STUDYID
DM_01,CL_TX_DM,SUBJID,Char,10,"if (source.AR_DM.SUBJID="""") compress(scan(source.AR_DM.USUBJID,-1,'_'))
else source.AR_DM.SUBJID",DM.SUBJID,,,,DM_01.CL_TX_DM.SUBJID
DM_01,CL_TX_DM,USUBJID,Char,30,source.AR_DM.USUBJID,DM.USUBJID,,,,DM_01.CL_TX_DM.USUBJID
DM_01,CL_TX_DM,ACTARMCD,Char,8,source.AR_DM.ACTARMCD,DM.ACTARMCD,,,,DM_01.CL_TX_DM.ACTARMCD
DM_01,CL_TX_DM,ACTARM,Char,150,source.AR_DM.ACTARM,DM.ACTARM,,,,DM_01.CL_TX_DM.ACTARM
DM_01,CL_TX_DM,AGE,Num,8,source.AR_DM.AGE,DM.AGE,,,,DM_01.CL_TX_DM.AGE
DM_01,CL_TX_DM,AGEU,Char,6,source.AR_DM.AGEU,DM.AGEU,,,,DM_01.CL_TX_DM.AGEU
DM_01,CL_TX_DM,ARM,Char,150,source.AR_DM.ARM,DM.ARM,,,,DM_01.CL_TX_DM.ARM
DM_01,CL_TX_DM,ARMCD,Char,8,source.AR_DM.ARMCD,DM.ARMCD,,,,DM_01.CL_TX_DM.ARMCD
DM_01,CL_TX_DM,BRTHDTC,Char,19,source.AR_DM.BRTHDTC,DM.BRTHDTC,,,,DM_01.CL_TX_DM.BRTHDTC
DM_01,CL_TX_DM,COUNTRY,Char,3,source.AR_DM.COUNTRY,DM.COUNTRY,,,,DM_01.CL_TX_DM.COUNTRY
DM_01,CL_TX_DM,ETHNIC,Char,22,source.AR_DM.ETHNIC,DM.ETHNIC,,,,DM_01.CL_TX_DM.ETHNIC
DM_01,CL_TX_DM,INVID,Char,10,source.AR_DM.INVID,DM.INVID,,,,DM_01.CL_TX_DM.INVID
DM_01,CL_TX_DM,INVNAM,Char,60,source.AR_DM.INVNAM,DM.INVNAM,,,,DM_01.CL_TX_DM.INVNAM
DM_01,CL_TX_DM,RACE,Char,50,source.AR_DM.RACE,DM.RACE,,,,DM_01.CL_TX_DM.RACE
DM_01,CL_TX_DM,RFENDTC,Char,19,source.AR_DM.RFENDTC,DM.RFENDTC,,,,DM_01.CL_TX_DM.RFENDTC
DM_01,CL_TX_DM,RFSTDTC,Char,19,source.AR_DM.RFSTDTC,DM.RFSTDTC,,,,DM_01.CL_TX_DM.RFSTDTC
DM_01,CL_TX_DM,SEX,Char,16,source.AR_DM.SEX,DM.SEX,,,,DM_01.CL_TX_DM.SEX
DM_01,CL_TX_DM,SITEID,Char,90,source.AR_DM.SITEID,DM.SITEID,,,,DM_01.CL_TX_DM.SITEID
DM_01,CL_TX_DM,DOMAIN,Char,10,'DM',DM.DOMAIN,,,,DM_01.CL_TX_DM.DOMAIN
DM_01,CL_TX_DM,RFXSTDTC,Char,19,intermediate.EX_AGG.MINSTDTC,DM.RFXSTDTC,,,,DM_01.CL_TX_DM.RFXSTDTC
DM_01,CL_TX_DM,RFXENDTC,Char,19,"if(intermediate.EX_AGG.MAXENDTC != '') intermediate.EX_AGG.MAXENDTC
else intermediate.EX_AGG.MAXSTDTC",DM.RFXENDTC,,,,DM_01.CL_TX_DM.RFXENDTC
DM_01,CL_TX_DM,RFPENDTC,Char,19,'',DM.RFPENDTC,,,,DM_01.CL_TX_DM.RFPENDTC
DM_01,CL_TX_DM,RACEASIA,Char,200,"if(source.AR_DM.RACEASIA= 'MADAGASCAR') ""MALAGASY""
else source.AR_DM.RACEASIA",DM.RACEASIA,,,,DM_01.CL_TX_DM.RACEASIA
DM_01,CL_TX_DM,RACE1,Char,200,source.AR_DM.RACEAIAN,DM.RACE1,,,,DM_01.CL_TX_DM.RACE1
DM_01,CL_TX_DM,RACE2,Char,200,source.AR_DM.RACEBKAA,DM.RACE2,,,,DM_01.CL_TX_DM.RACE2
DM_01,CL_TX_DM,RACE3,Char,200,source.AR_DM.RACENHPI,DM.RACE3,,,,DM_01.CL_TX_DM.RACE3
DM_01,CL_TX_DM,RACE4,Char,200,source.AR_DM.RACEWHTE,DM.RACE4,,,,DM_01.CL_TX_DM.RACE4
DM_01,CL_TX_DM,RACE5,Char,200,source.AR_DM.RACEASN,DM.RACE5,,,,DM_01.CL_TX_DM.RACE5
DM_01,CL_TX_DM,DTHDTC,Char,19,source.AR_DEATH_CE.CESTDTC,DM.DTHDTC,,,,DM_01.CL_TX_DM.DTHDTC
DM_01,CL_TX_DM,DTHFL,Char,2,if(source.AR_DEATH_CE.CESTDTC != '') 'Y',DM.DTHFL,,,,DM_01.CL_TX_DM.DTHFL
DM_01,CL_TX_DM,SCRNUM,Char,200,source.AR_SA_SC.SCORRES,DM.SCRNUM,,,,DM_01.CL_TX_DM.SCRNUM
DM_01,CL_TX_DM,BRTHDTI,Char,19,source.AR_DM.BRTHDTI,DM.BRTHDTI,,,,DM_01.CL_TX_DM.BRTHDTI
DM_01,CL_TX_DM,DMCAGEU,Char,6,source.AR_DM.DMCAGEU,DM.DMCAGEU,,,,DM_01.CL_TX_DM.DMCAGEU
DM_01,CL_TX_DM,SITENUM,Char,10,source.AR_DM.SITENUM,DM.SITENUM,,,,DM_01.CL_TX_DM.SITENUM
DM_01,CL_TX_DM,DMCAGE,Char,200,"lrtrim(left(put(source.AR_DM.DMCAGE,""BEST16."")))",DM.DMCAGE,,,,DM_01.CL_TX_DM.DMCAGE
DM_01,CL_TX_DM,SCRCONF,Char,200,"lrtrim(left(put(source.AR_SA_SC.SCRCONF, ""BEST16."")))",DM.SCRCONF,,,,DM_01.CL_TX_DM.SCRCONF
EX_01,MER_EX,EXSTDTC,Char,20,,EX.EXSTDTC,,,,EX_01.MER_EX.EXSTDTC
EX_01,MER_EX,EXENDTC,Char,20,,EX.EXENDTC,,,,EX_01.MER_EX.EXENDTC
EX_01,MER_EX,USUBJID,Char,25,,EX.USUBJID,,,,EX_01.MER_EX.USUBJID
EX_01,MER_EX,DOMAIN,Char,2,'EX',EX.DOMAIN,,,,EX_01.MER_EX.DOMAIN
EX_01,CL_TX_SM_EX,STUDYID,Char,12,source.AR_SM_EX.STUDYID,EX.PART_SM_EX.STUDYID,,,,EX_01.CL_TX_SM_EX.STUDYID
EX_01,CL_TX_SM_EX,USUBJID,Char,30,source.AR_SM_EX.USUBJID,EX.PART_SM_EX.USUBJID,,,,EX_01.CL_TX_SM_EX.USUBJID
EX_01,CL_TX_SM_EX,VISIT,Char,60,source.AR_SM_EX.VISIT,EX.PART_SM_EX.VISIT,,,,EX_01.CL_TX_SM_EX.VISIT
EX_01,CL_TX_SM_EX,EXSEQ,Num,8,source.AR_SM_EX.EXSEQ,EX.PART_SM_EX.EXSEQ,,,,EX_01.CL_TX_SM_EX.EXSEQ
EX_01,CL_TX_SM_EX,EXGRPID,Char,40,source.AR_SM_EX.EXGRPID,EX.PART_SM_EX.EXGRPID,,,,EX_01.CL_TX_SM_EX.EXGRPID
EX_01,CL_TX_SM_EX,VISITNUM,Num,8,source.AR_SM_EX.VISITNUM,EX.PART_SM_EX.VISITNUM,,,,EX_01.CL_TX_SM_EX.VISITNUM
EX_01,CL_TX_SM_EX,EPOCH,Char,40,source.AR_SM_EX.EPOCH,EX.PART_SM_EX.EPOCH,,,,EX_01.CL_TX_SM_EX.EPOCH
EX_01,CL_TX_SM_EX,EXADJ,Char,200,"if(source.AR_SM_EX.EXNUMDOS > 0) source.AR_SM_EX.EXADJ
else ''",EX.PART_SM_EX.EXADJ,,,,EX_01.CL_TX_SM_EX.EXADJ
EX_01,CL_TX_SM_EX,EXCAT,Char,20,source.AR_SM_EX.EXCAT,EX.PART_SM_EX.EXCAT,,,,EX_01.CL_TX_SM_EX.EXCAT
EX_01,CL_TX_SM_EX,EXDIR,Char,50,source.AR_SM_EX.EXDIR,EX.PART_SM_EX.EXDIR,,,,EX_01.CL_TX_SM_EX.EXDIR
EX_01,CL_TX_SM_EX,EXDOSE,Num,8,"if(source.AR_SM_EX.EXNUMDOS > 0) source.AR_SM_EX.EXDOSE
else null",EX.PART_SM_EX.EXDOSE,,,,EX_01.CL_TX_SM_EX.EXDOSE
EX_01,CL_TX_SM_EX,EXDOSFRM,Char,70,source.AR_SM_EX.EXDOSFRM,EX.PART_SM_EX.EXDOSFRM,,,,EX_01.CL_TX_SM_EX.EXDOSFRM
EX_01,CL_TX_SM_EX,EXDOSFRQ,Char,50,source.AR_SM_EX.EXDOSFRQ,EX.PART_SM_EX.EXDOSFRQ,,,,EX_01.CL_TX_SM_EX.EXDOSFRQ
EX_01,CL_TX_SM_EX,EXDOSRGM,Char,60,source.AR_SM_EX.EXDOSRGM,EX.PART_SM_EX.EXDOSRGM,,,,EX_01.CL_TX_SM_EX.EXDOSRGM
EX_01,CL_TX_SM_EX,EXDOSU,Char,40,source.AR_SM_EX.EXDOSU,EX.PART_SM_EX.EXDOSU,,,,EX_01.CL_TX_SM_EX.EXDOSU
EX_01,CL_TX_SM_EX,EXENDTC,Char,19,source.AR_SM_EX.EXENDTC,EX.PART_SM_EX.EXENDTC,,,,EX_01.CL_TX_SM_EX.EXENDTC
EX_01,CL_TX_SM_EX,EXENDY,Num,8,source.AR_SM_EX.EXENDY,EX.PART_SM_EX.EXENDY,,,,EX_01.CL_TX_SM_EX.EXENDY
EX_01,CL_TX_SM_EX,EXLAT,Char,50,source.AR_SM_EX.EXLAT,EX.PART_SM_EX.EXLAT,,,,EX_01.CL_TX_SM_EX.EXLAT
EX_01,CL_TX_SM_EX,EXLOC,Char,80,source.AR_SM_EX.EXLOC,EX.PART_SM_EX.EXLOC,,,,EX_01.CL_TX_SM_EX.EXLOC
EX_01,CL_TX_SM_EX,EXLOT,Char,50,source.AR_SM_EX.EXLOT,EX.PART_SM_EX.EXLOT,,,,EX_01.CL_TX_SM_EX.EXLOT
EX_01,CL_TX_SM_EX,EXROUTE,Char,50,source.AR_SM_EX.EXROUTE,EX.PART_SM_EX.EXROUTE,,,,EX_01.CL_TX_SM_EX.EXROUTE
EX_01,CL_TX_SM_EX,EXSTDTC,Char,19,source.AR_SM_EX.EXSTDTC,EX.PART_SM_EX.EXSTDTC,,,,EX_01.CL_TX_SM_EX.EXSTDTC
EX_01,CL_TX_SM_EX,EXSTDY,Num,8,source.AR_SM_EX.EXSTDY,EX.PART_SM_EX.EXSTDY,,,,EX_01.CL_TX_SM_EX.EXSTDY
EX_01,CL_TX_SM_EX,EXTPT,Char,80,source.AR_SM_EX.EXTPT,EX.PART_SM_EX.EXTPT,,,,EX_01.CL_TX_SM_EX.EXTPT
EX_01,CL_TX_SM_EX,EXTPTNUM,Num,8,source.AR_SM_EX.EXTPTNUM,EX.PART_SM_EX.EXTPTNUM,,,,EX_01.CL_TX_SM_EX.EXTPTNUM
EX_01,CL_TX_SM_EX,TAETORD,Num,8,source.AR_SM_EX.TAETORD,EX.PART_SM_EX.TAETORD,,,,EX_01.CL_TX_SM_EX.TAETORD
EX_01,CL_TX_SM_EX,EXREFID,Char,200,source.AR_SM_EX.EXSPID2,EX.PART_SM_EX.EXREFID,,,,EX_01.CL_TX_SM_EX.EXREFID
EX_01,CL_TX_SM_EX,ELEMENT,Char,150,source.AR_SM_EX.ELEMENT,EX.PART_SM_EX.ELEMENT,,,,EX_01.CL_TX_SM_EX.ELEMENT
EX_01,CL_TX_SM_EX,ETCD,Char,8,source.AR_SM_EX.ETCD,EX.PART_SM_EX.ETCD,,,,EX_01.CL_TX_SM_EX.ETCD
EX_01,CL_TX_SM_EX,EXADMINS,Char,40,source.AR_SM_EX.EXADMINS,EX.PART_SM_EX.EXADMINS,,,,EX_01.CL_TX_SM_EX.EXADMINS
EX_01,CL_TX_SM_EX,EXLOT2,Char,50,source.AR_SM_EX.EXLOT2,EX.PART_SM_EX.EXLOT2,,,,EX_01.CL_TX_SM_EX.EXLOT2
EX_01,CL_TX_SM_EX,EXNUMDOS,Char,200,"lrtrim(left(put(source.AR_SM_EX.EXNUMDOS,""BEST16."")))",EX.PART_SM_EX.EXNUMDOS,,,,EX_01.CL_TX_SM_EX.EXNUMDOS
EX_01,CL_TX_SM_EX,EXMANFID,Char,200,source.AR_SM_EX.MANUFID,EX.PART_SM_EX.EXMANFID,,,,EX_01.CL_TX_SM_EX.EXMANFID
EX_01,CL_TX_SM_EX,PRDFLAG,Char,60,source.AR_SM_EX.PRDFLAG,EX.PART_SM_EX.PRDFLAG,,,,EX_01.CL_TX_SM_EX.PRDFLAG
EX_01,CL_TX_SM_EX,EXSMSTS,Char,200,source.AR_SM_EX.EXSMSTS,EX.PART_SM_EX.EXSMSTS,,,,EX_01.CL_TX_SM_EX.EXSMSTS
EX_01,CL_TX_SM_EX,EXRSDISC,Char,200,source.AR_SM_EX.REAMEDDI,EX.PART_SM_EX.EXRSDISC,,,,EX_01.CL_TX_SM_EX.EXRSDISC
EX_01,CL_TX_SM_EX,EXTRT,Char,150,source.AR_SM_EX.EXTRT,EX.PART_SM_EX.EXTRT,,,,EX_01.CL_TX_SM_EX.EXTRT
EX_01,CL_TX_SM_EX,EXLNKID,Char,200,"if((source.AR_SM_EX.EXSPID != '') && (source.AR_SM_EX.EXSTDTC != '' )&& (source.AR_SM_EX.EXTPT != '' ))
concat(lrtrim(source.AR_SM_EX.EXSPID), ""-"" , lrtrim(source.AR_SM_EX.EXSTDTC), ""-"" , source.AR_SM_EX.EXTPT)

else if((source.AR_SM_EX.EXSPID != '') && (source.AR_SM_EX.EXSTDTC != '' ))
concat(lrtrim(source.AR_SM_EX.EXSPID), ""-"" ,lrtrim(source.AR_SM_EX.EXSTDTC))

else if(lrtrim(source.AR_SM_EX.EXSPID) != '')  source.AR_SM_EX.EXSPID
else ''",EX.PART_SM_EX.EXLNKID,,,,EX_01.CL_TX_SM_EX.EXLNKID
EX_01,CL_TX_SM_EX,EXSPID,Char,40,source.AR_SM_EX.EXSPID,EX.PART_SM_EX.EXSPID,,,,EX_01.CL_TX_SM_EX.EXSPID
EX_01,CL_TX_SMAB_EX,STUDYID,Char,12,source.AR_SMAB_EX.STUDYID,EX.PART_SMAB_EX.STUDYID,,,,EX_01.CL_TX_SMAB_EX.STUDYID
EX_01,CL_TX_SMAB_EX,USUBJID,Char,30,source.AR_SMAB_EX.USUBJID,EX.PART_SMAB_EX.USUBJID,,,,EX_01.CL_TX_SMAB_EX.USUBJID
EX_01,CL_TX_SMAB_EX,VISIT,Char,60,source.AR_SMAB_EX.VISIT,EX.PART_SMAB_EX.VISIT,,,,EX_01.CL_TX_SMAB_EX.VISIT
EX_01,CL_TX_SMAB_EX,EXSEQ,Num,8,source.AR_SMAB_EX.EXSEQ,EX.PART_SMAB_EX.EXSEQ,,,,EX_01.CL_TX_SMAB_EX.EXSEQ
EX_01,CL_TX_SMAB_EX,VISITNUM,Num,8,source.AR_SMAB_EX.VISITNUM,EX.PART_SMAB_EX.VISITNUM,,,,EX_01.CL_TX_SMAB_EX.VISITNUM
EX_01,CL_TX_SMAB_EX,EXTRT,Char,150,source.AR_SMAB_EX.EXTRT,EX.PART_SMAB_EX.EXTRT,,,,EX_01.CL_TX_SMAB_EX.EXTRT
EX_01,CL_TX_SMAB_EX,EXGRPID,Char,40,source.AR_SMAB_EX.EXGRPID,EX.PART_SMAB_EX.EXGRPID,,,,EX_01.CL_TX_SMAB_EX.EXGRPID
EX_01,CL_TX_SMAB_EX,EPOCH,Char,40,source.AR_SMAB_EX.EPOCH,EX.PART_SMAB_EX.EPOCH,,,,EX_01.CL_TX_SMAB_EX.EPOCH
EX_01,CL_TX_SMAB_EX,EXADJ,Char,200,if(source.AR_SMAB_EX.EXNUMDOS > 0 ) source.AR_SMAB_EX.EXADJ else '',EX.PART_SMAB_EX.EXADJ,,,,EX_01.CL_TX_SMAB_EX.EXADJ
EX_01,CL_TX_SMAB_EX,EXDOSFRM,Char,70,source.AR_SMAB_EX.EXDOSFRM,EX.PART_SMAB_EX.EXDOSFRM,,,,EX_01.CL_TX_SMAB_EX.EXDOSFRM
EX_01,CL_TX_SMAB_EX,EXDOSFRQ,Char,50,source.AR_SMAB_EX.EXDOSFRQ,EX.PART_SMAB_EX.EXDOSFRQ,,,,EX_01.CL_TX_SMAB_EX.EXDOSFRQ
EX_01,CL_TX_SMAB_EX,EXDOSE,Num,8,source.AR_SMAB_EX.EXDOSTOT,EX.PART_SMAB_EX.EXDOSE,,,,EX_01.CL_TX_SMAB_EX.EXDOSE
EX_01,CL_TX_SMAB_EX,EXDOSU,Char,40,source.AR_SMAB_EX.EXDOSU,EX.PART_SMAB_EX.EXDOSU,,,,EX_01.CL_TX_SMAB_EX.EXDOSU
EX_01,CL_TX_SMAB_EX,EXENDTC,Char,19,source.AR_SMAB_EX.EXENDTC,EX.PART_SMAB_EX.EXENDTC,,,,EX_01.CL_TX_SMAB_EX.EXENDTC
EX_01,CL_TX_SMAB_EX,EXENDY,Num,8,source.AR_SMAB_EX.EXENDY,EX.PART_SMAB_EX.EXENDY,,,,EX_01.CL_TX_SMAB_EX.EXENDY
EX_01,CL_TX_SMAB_EX,EXLOC,Char,80,source.AR_SMAB_EX.EXLOC,EX.PART_SMAB_EX.EXLOC,,,,EX_01.CL_TX_SMAB_EX.EXLOC
EX_01,CL_TX_SMAB_EX,EXSTDTC,Char,19,source.AR_SMAB_EX.EXSTDTC,EX.PART_SMAB_EX.EXSTDTC,,,,EX_01.CL_TX_SMAB_EX.EXSTDTC
EX_01,CL_TX_SMAB_EX,EXSTDY,Num,8,source.AR_SMAB_EX.EXSTDY,EX.PART_SMAB_EX.EXSTDY,,,,EX_01.CL_TX_SMAB_EX.EXSTDY
EX_01,CL_TX_SMAB_EX,EXTPT,Char,80,source.AR_SMAB_EX.EXTPT,EX.PART_SMAB_EX.EXTPT,,,,EX_01.CL_TX_SMAB_EX.EXTPT
EX_01,CL_TX_SMAB_EX,EXTPTNUM,Num,8,source.AR_SMAB_EX.EXTPTNUM,EX.PART_SMAB_EX.EXTPTNUM,,,,EX_01.CL_TX_SMAB_EX.EXTPTNUM
EX_01,CL_TX_SMAB_EX,TAETORD,Num,8,source.AR_SMAB_EX.TAETORD,EX.PART_SMAB_EX.TAETORD,,,,EX_01.CL_TX_SMAB_EX.TAETORD
EX_01,CL_TX_SMAB_EX,EXDOSRGM,Char,60,source.AR_SMAB_EX.EXDOSRGM,EX.PART_SMAB_EX.EXDOSRGM,,,,EX_01.CL_TX_SMAB_EX.EXDOSRGM
EX_01,CL_TX_SMAB_EX,EXCAT,Char,20,source.AR_SMAB_EX.MEDCAT,EX.PART_SMAB_EX.EXCAT,,,,EX_01.CL_TX_SMAB_EX.EXCAT
EX_01,CL_TX_SMAB_EX,ELEMENT,Char,150,source.AR_SMAB_EX.ELEMENT,EX.PART_SMAB_EX.ELEMENT,,,,EX_01.CL_TX_SMAB_EX.ELEMENT
EX_01,CL_TX_SMAB_EX,ETCD,Char,8,source.AR_SMAB_EX.ETCD,EX.PART_SMAB_EX.ETCD,,,,EX_01.CL_TX_SMAB_EX.ETCD
EX_01,CL_TX_SMAB_EX,EXADMINS,Char,40,source.AR_SMAB_EX.EXADMINS,EX.PART_SMAB_EX.EXADMINS,,,,EX_01.CL_TX_SMAB_EX.EXADMINS
EX_01,CL_TX_SMAB_EX,EXLINTYP,Char,40,source.AR_SMAB_EX.EXLINTYP,EX.PART_SMAB_EX.EXLINTYP,,,,EX_01.CL_TX_SMAB_EX.EXLINTYP
EX_01,CL_TX_SMAB_EX,EXNUMDOS,Char,200,"lrtrim(left(put(source.AR_SMAB_EX.EXNUMDOS,""BEST16."")))",EX.PART_SMAB_EX.EXNUMDOS,,,,EX_01.CL_TX_SMAB_EX.EXNUMDOS
EX_01,CL_TX_SMAB_EX,EXVACNUM,Char,200,"lrtrim(left(put(source.AR_SMAB_EX.EXVACNUM,""BEST16."")))",EX.PART_SMAB_EX.EXVACNUM,,,,EX_01.CL_TX_SMAB_EX.EXVACNUM
EX_01,CL_TX_SMAB_EX,PRDFLAG,Char,60,source.AR_SMAB_EX.PRDFLAG,EX.PART_SMAB_EX.PRDFLAG,,,,EX_01.CL_TX_SMAB_EX.PRDFLAG
EX_01,CL_TX_SMAB_EX,EXSMSTS,Char,200,source.AR_SMAB_EX.EXSMSTS,EX.PART_SMAB_EX.EXSMSTS,,,,EX_01.CL_TX_SMAB_EX.EXSMSTS
EX_01,CL_TX_SMAB_EX,EXRSDISC,Char,200,source.AR_SMAB_EX.REAMEDDI,EX.PART_SMAB_EX.EXRSDISC,,,,EX_01.CL_TX_SMAB_EX.EXRSDISC
EX_01,CL_TX_SMAB_EX,EXOTHLOC,Char,200,source.AR_SMAB_EX.EXOTHLOC,EX.PART_SMAB_EX.EXOTHLOC,,,,EX_01.CL_TX_SMAB_EX.EXOTHLOC
EX_01,CL_TX_SMAB_EX,EXDIR,Char,50,source.AR_SMAB_EX.EXDIR,EX.PART_SMAB_EX.EXDIR,,,,EX_01.CL_TX_SMAB_EX.EXDIR
EX_01,CL_TX_SMAB_EX,EXLAT,Char,50,source.AR_SMAB_EX.EXLAT,EX.PART_SMAB_EX.EXLAT,,,,EX_01.CL_TX_SMAB_EX.EXLAT
EX_01,CL_TX_SMAB_EX,EXROUTE,Char,50,source.AR_SMAB_EX.EXROUTE,EX.PART_SMAB_EX.EXROUTE,,,,EX_01.CL_TX_SMAB_EX.EXROUTE
EX_01,CL_TX_SMAB_EX,EXSPID,Char,40,source.AR_SMAB_EX.EXSPID,EX.PART_SMAB_EX.EXSPID,,,,EX_01.CL_TX_SMAB_EX.EXSPID
EX_01,CL_TX_SMAB_EX,EXREFID,Char,20,source.AR_SMAB_EX.EXSPID2,EX.PART_SMAB_EX.EXREFID,,,,EX_01.CL_TX_SMAB_EX.EXREFID
EX_01,CL_TX_SMAB_EX,EXLOT,Char,50,source.AR_SMAB_EX.EXLOT,EX.PART_SMAB_EX.EXLOT,,,,EX_01.CL_TX_SMAB_EX.EXLOT
EX_01,CL_TX_SMAB_EX,EXLNKID,Char,40,"if((source.AR_SMAB_EX.EXDOSSEQ != '') && (source.AR_SMAB_EX.EXSTDTC != '' )&& (source.AR_SMAB_EX.EXTPT != '' ))
concat(lrtrim(source.AR_SMAB_EX.EXDOSSEQ), ""-"" , lrtrim(source.AR_SMAB_EX.EXSTDTC), ""-"" , lrtrim(source.AR_SMAB_EX.EXTPT))
else ''",EX.PART_SMAB_EX.EXLNKID,,,,EX_01.CL_TX_SMAB_EX.EXLNKID
DM_01,DM_JN_EX,,,0,,,,,,DM_01.DM_JN_EX.
DM_01,EX_AGG,USUBJID,Char,25,ldm.EX.USUBJID,,,,,DM_01.EX_AGG.USUBJID
DM_01,EX_AGG,MINSTDTC,Char,20,smin(ldm.EX.EXSTDTC),,,,,DM_01.EX_AGG.MINSTDTC
DM_01,EX_AGG,MAXENDTC,Char,20,smax(ldm.EX.EXENDTC),,,,,DM_01.EX_AGG.MAXENDTC
DM_01,EX_AGG,MAXSTDTC,Char,20,smax(ldm.EX.EXSTDTC),,,,,DM_01.EX_AGG.MAXSTDTC
EC_01,CL_SM_EC,STUDYID,Char,12,source.AR_SM_EX.STUDYID,EC.PART_CL_SM_EC.STUDYID,,,,EC_01.CL_SM_EC.STUDYID
EC_01,CL_SM_EC,USUBJID,Char,30,source.AR_SM_EX.USUBJID,EC.PART_CL_SM_EC.USUBJID,,,,EC_01.CL_SM_EC.USUBJID
EC_01,CL_SM_EC,VISIT,Char,60,source.AR_SM_EX.VISIT,EC.PART_CL_SM_EC.VISIT,,,,EC_01.CL_SM_EC.VISIT
EC_01,CL_SM_EC,ECSEQ,Num,8,source.AR_SM_EX.EXSEQ,EC.PART_CL_SM_EC.ECSEQ,,,,EC_01.CL_SM_EC.ECSEQ
EC_01,CL_SM_EC,ECGRPID,Char,40,source.AR_SM_EX.EXGRPID,EC.PART_CL_SM_EC.ECGRPID,,,,EC_01.CL_SM_EC.ECGRPID
EC_01,CL_SM_EC,VISITNUM,Num,8,source.AR_SM_EX.VISITNUM,EC.PART_CL_SM_EC.VISITNUM,,,,EC_01.CL_SM_EC.VISITNUM
EC_01,CL_SM_EC,EPOCH,Char,40,source.AR_SM_EX.EPOCH,EC.PART_CL_SM_EC.EPOCH,,,,EC_01.CL_SM_EC.EPOCH
EC_01,CL_SM_EC,ECADJ,Char,200,"If((source.AR_SM_EX.EXNUMDOS > 0) && (intermediate.SM_TX.ECMOOD in ('PERFORMED',''))) source.AR_SM_EX.EXADJ",EC.PART_CL_SM_EC.ECADJ,,,,EC_01.CL_SM_EC.ECADJ
EC_01,CL_SM_EC,ECCAT,Char,20,source.AR_SM_EX.EXCAT,EC.PART_CL_SM_EC.ECCAT,,,,EC_01.CL_SM_EC.ECCAT
EC_01,CL_SM_EC,ECDIR,Char,50,source.AR_SM_EX.EXDIR,EC.PART_CL_SM_EC.ECDIR,,,,EC_01.CL_SM_EC.ECDIR
EC_01,CL_SM_EC,ECDOSE,Num,8,if(source.AR_SM_EX.EXNUMDOS > 0)  source.AR_SM_EX.EXNUMDOS,EC.PART_CL_SM_EC.ECDOSE,,,,EC_01.CL_SM_EC.ECDOSE
EC_01,CL_SM_EC,ECDOSFRM,Char,70,source.AR_SM_EX.EXDOSFRM,EC.PART_CL_SM_EC.ECDOSFRM,,,,EC_01.CL_SM_EC.ECDOSFRM
EC_01,CL_SM_EC,ECDOSFRQ,Char,50,source.AR_SM_EX.EXDOSFRQ,EC.PART_CL_SM_EC.ECDOSFRQ,,,,EC_01.CL_SM_EC.ECDOSFRQ
EC_01,CL_SM_EC,ECDOSRGM,Char,60,source.AR_SM_EX.EXDOSRGM,EC.PART_CL_SM_EC.ECDOSRGM,,,,EC_01.CL_SM_EC.ECDOSRGM
EC_01,CL_SM_EC,ECDOSU,Char,40,if(source.AR_SM_EX.EXNUMDOS > 0)  source.AR_SM_EX.EXDOSFRM,EC.PART_CL_SM_EC.ECDOSU,,,,EC_01.CL_SM_EC.ECDOSU
EC_01,CL_SM_EC,ECENDTC,Char,19,source.AR_SM_EX.EXENDTC,EC.PART_CL_SM_EC.ECENDTC,,,,EC_01.CL_SM_EC.ECENDTC
EC_01,CL_SM_EC,ECENDY,Num,8,source.AR_SM_EX.EXENDY,EC.PART_CL_SM_EC.ECENDY,,,,EC_01.CL_SM_EC.ECENDY
EC_01,CL_SM_EC,ECLAT,Char,50,source.AR_SM_EX.EXLAT,EC.PART_CL_SM_EC.ECLAT,,,,EC_01.CL_SM_EC.ECLAT
EC_01,CL_SM_EC,ECLOC,Char,80,source.AR_SM_EX.EXLOC,EC.PART_CL_SM_EC.ECLOC,,,,EC_01.CL_SM_EC.ECLOC
EC_01,CL_SM_EC,ECLOT,Char,50,source.AR_SM_EX.EXLOT,EC.PART_CL_SM_EC.ECLOT,,,,EC_01.CL_SM_EC.ECLOT
EC_01,CL_SM_EC,ECREFID,Char,40,source.AR_SM_EX.EXSPID2,EC.PART_CL_SM_EC.ECREFID,,,,EC_01.CL_SM_EC.ECREFID
EC_01,CL_SM_EC,ECROUTE,Char,50,source.AR_SM_EX.EXROUTE,EC.PART_CL_SM_EC.ECROUTE,,,,EC_01.CL_SM_EC.ECROUTE
EC_01,CL_SM_EC,ECSTDTC,Char,19,source.AR_SM_EX.EXSTDTC,EC.PART_CL_SM_EC.ECSTDTC,,,,EC_01.CL_SM_EC.ECSTDTC
EC_01,CL_SM_EC,ECSTDY,Num,8,source.AR_SM_EX.EXSTDY,EC.PART_CL_SM_EC.ECSTDY,,,,EC_01.CL_SM_EC.ECSTDY
EC_01,CL_SM_EC,ECTPT,Char,80,source.AR_SM_EX.EXTPT,EC.PART_CL_SM_EC.ECTPT,,,,EC_01.CL_SM_EC.ECTPT
EC_01,CL_SM_EC,ECTPTNUM,Num,8,source.AR_SM_EX.EXTPTNUM,EC.PART_CL_SM_EC.ECTPTNUM,,,,EC_01.CL_SM_EC.ECTPTNUM
EC_01,CL_SM_EC,ECTRT,Char,150,source.AR_SM_EX.EXTRT,EC.PART_CL_SM_EC.ECTRT,,,,EC_01.CL_SM_EC.ECTRT
EC_01,CL_SM_EC,TAETORD,Num,8,source.AR_SM_EX.TAETORD,EC.PART_CL_SM_EC.TAETORD,,,,EC_01.CL_SM_EC.TAETORD
EC_01,CL_SM_EC,ELEMENT,Char,150,source.AR_SM_EX.ELEMENT,EC.PART_CL_SM_EC.ELEMENT,,,,EC_01.CL_SM_EC.ELEMENT
EC_01,CL_SM_EC,ETCD,Char,8,source.AR_SM_EX.ETCD,EC.PART_CL_SM_EC.ETCD,,,,EC_01.CL_SM_EC.ETCD
EC_01,CL_SM_EC,ECREASOC,Char,200,"If(source.AR_SM_EX.EXNUMDOS = 0)  source.AR_SM_EX.EXADJ
else ''",EC.PART_CL_SM_EC.ECREASOC,,,,EC_01.CL_SM_EC.ECREASOC
EC_01,CL_SM_EC,ECADMINS,Char,40,source.AR_SM_EX.EXADMINS,EC.PART_CL_SM_EC.ECADMINS,,,,EC_01.CL_SM_EC.ECADMINS
EC_01,CL_SM_EC,ECLOT2,Char,50,source.AR_SM_EX.EXLOT2,EC.PART_CL_SM_EC.ECLOT2,,,,EC_01.CL_SM_EC.ECLOT2
EC_01,CL_SM_EC,ECMANFID,Char,200,source.AR_SM_EX.MANUFID,EC.PART_CL_SM_EC.ECMANFID,,,,EC_01.CL_SM_EC.ECMANFID
EC_01,CL_SM_EC,PRDFLAG,Char,60,source.AR_SM_EX.PRDFLAG,EC.PART_CL_SM_EC.PRDFLAG,,,,EC_01.CL_SM_EC.PRDFLAG
EC_01,CL_SM_EC,ECSMSTS,Char,200,source.AR_SM_EX.EXSMSTS,EC.PART_CL_SM_EC.ECSMSTS,,,,EC_01.CL_SM_EC.ECSMSTS
EC_01,CL_SM_EC,ECRSDISC,Char,200,source.AR_SM_EX.REAMEDDI,EC.PART_CL_SM_EC.ECRSDISC,,,,EC_01.CL_SM_EC.ECRSDISC
EC_01,CL_SM_EC,ECMOOD,Char,200,intermediate.SM_TX.ECMOOD,EC.PART_CL_SM_EC.ECMOOD,,,,EC_01.CL_SM_EC.ECMOOD
EC_01,CL_SM_EC,ECPRESP,Char,200,'Y',EC.PART_CL_SM_EC.ECPRESP,,,,EC_01.CL_SM_EC.ECPRESP
EC_01,CL_SM_EC,ECOCCUR,Char,200,"If(source.AR_SM_EX.EXNUMDOS > 0) 'Y'
else If(source.AR_SM_EX.EXNUMDOS = 0) 'N'",EC.PART_CL_SM_EC.ECOCCUR,,,,EC_01.CL_SM_EC.ECOCCUR
EC_01,CL_SM_EC,ECLNKID,Char,200,"if((source.AR_SM_EX.EXSPID != '') && (source.AR_SM_EX.EXSTDTC != '' )&& (source.AR_SM_EX.EXTPT != '' ))
concat(lrtrim(source.AR_SM_EX.EXSPID), ""-"" , lrtrim(source.AR_SM_EX.EXSTDTC), ""-"" , source.AR_SM_EX.EXTPT)

else if((source.AR_SM_EX.EXSPID != '') && (source.AR_SM_EX.EXSTDTC != '' ))
concat(lrtrim(source.AR_SM_EX.EXSPID), ""-"" ,lrtrim(source.AR_SM_EX.EXSTDTC))

else if(lrtrim(source.AR_SM_EX.EXSPID) != '')  source.AR_SM_EX.EXSPID
else ''",EC.PART_CL_SM_EC.ECLNKID,,,,EC_01.CL_SM_EC.ECLNKID
EC_01,CL_SM_EC,ECSPID,Char,40,source.AR_SM_EX.EXSPID,EC.PART_CL_SM_EC.ECSPID,,,,EC_01.CL_SM_EC.ECSPID
DS_01,CL_DS01_DS,STUDYID,Char,12,source.AR_DS01_DS.STUDYID,DS.PART_DS01_DS.STUDYID,,,,DS_01.CL_DS01_DS.STUDYID
DS_01,CL_DS01_DS,USUBJID,Char,30,source.AR_DS01_DS.USUBJID,DS.PART_DS01_DS.USUBJID,,,,DS_01.CL_DS01_DS.USUBJID
DS_01,CL_DS01_DS,VISIT,Char,60,source.AR_DS01_DS.VISIT,DS.PART_DS01_DS.VISIT,,,,DS_01.CL_DS01_DS.VISIT
DS_01,CL_DS01_DS,DSSEQ,Num,8,source.AR_DS01_DS.DSSEQ,DS.PART_DS01_DS.DSSEQ,,,,DS_01.CL_DS01_DS.DSSEQ
DS_01,CL_DS01_DS,DSGRPID,Char,40,source.AR_DS01_DS.DSGRPID,DS.PART_DS01_DS.DSGRPID,,,,DS_01.CL_DS01_DS.DSGRPID
DS_01,CL_DS01_DS,VISITNUM,Num,8,source.AR_DS01_DS.VISITNUM,DS.PART_DS01_DS.VISITNUM,,,,DS_01.CL_DS01_DS.VISITNUM
DS_01,CL_DS01_DS,DSCAT,Char,80,source.AR_DS01_DS.DSCAT,DS.PART_DS01_DS.DSCAT,,,,DS_01.CL_DS01_DS.DSCAT
DS_01,CL_DS01_DS,DSDECOD,Char,80,source.AR_DS01_DS.DSDECOD,DS.PART_DS01_DS.DSDECOD,,,,DS_01.CL_DS01_DS.DSDECOD
DS_01,CL_DS01_DS,DSSTDTC,Char,19,source.AR_DS01_DS.DSSTDTC,DS.PART_DS01_DS.DSSTDTC,,,,DS_01.CL_DS01_DS.DSSTDTC
DS_01,CL_DS01_DS,DSSTDY,Num,8,source.AR_DS01_DS.DSSTDY,DS.PART_DS01_DS.DSSTDY,,,,DS_01.CL_DS01_DS.DSSTDY
DS_01,CL_DS01_DS,DSTERM,Char,200,"if (upcase(source.AR_DS01_DS.DSTERM) in ('OTHER') && (source.AR_DS01_DS.ADDDSDTL !=''))
lrtrim(source.AR_DS01_DS.ADDDSDTL)
else source.AR_DS01_DS.DSTERM",DS.PART_DS01_DS.DSTERM,,,,DS_01.CL_DS01_DS.DSTERM
DS_01,CL_DS01_DS,EPOCH,Char,40,source.AR_DS01_DS.EPOCH,DS.PART_DS01_DS.EPOCH,,,,DS_01.CL_DS01_DS.EPOCH
DS_01,CL_DS01_DS,TAETORD,Num,8,source.AR_DS01_DS.TAETORD,DS.PART_DS01_DS.TAETORD,,,,DS_01.CL_DS01_DS.TAETORD
DS_01,CL_DS01_DS,DOMAIN,Char,12,'DS',DS.PART_DS01_DS.DOMAIN,,,,DS_01.CL_DS01_DS.DOMAIN
DS_01,CL_DS01_DS,ELEMENT,Char,150,source.AR_DS01_DS.ELEMENT,DS.PART_DS01_DS.ELEMENT,,,,DS_01.CL_DS01_DS.ELEMENT
DS_01,CL_DS01_DS,ETCD,Char,8,source.AR_DS01_DS.ETCD,DS.PART_DS01_DS.ETCD,,,,DS_01.CL_DS01_DS.ETCD
DS_01,CL_DS01_DS,ADDDSDTL,Char,200,"if (upcase(source.AR_DS01_DS.DSTERM) not in ('OTHER')) 
source.AR_DS01_DS.ADDDSDTL",DS.PART_DS01_DS.ADDDSDTL,,,,DS_01.CL_DS01_DS.ADDDSDTL
SV_01,CL_DOV_SV,STUDYID,Char,12,source.AR_DOV_SV.STUDYID,SV.STUDYID,,,,SV_01.CL_DOV_SV.STUDYID
SV_01,CL_DOV_SV,USUBJID,Char,30,source.AR_DOV_SV.USUBJID,SV.USUBJID,,,,SV_01.CL_DOV_SV.USUBJID
SV_01,CL_DOV_SV,VISIT,Char,60,source.AR_DOV_SV.VISIT,SV.VISIT,,,,SV_01.CL_DOV_SV.VISIT
SV_01,CL_DOV_SV,VISITNUM,Num,8,source.AR_DOV_SV.VISITNUM,SV.VISITNUM,,,,SV_01.CL_DOV_SV.VISITNUM
SV_01,CL_DOV_SV,SVSTDTC,Char,19,source.AR_DOV_SV.SVSTDTC,SV.SVSTDTC,,,,SV_01.CL_DOV_SV.SVSTDTC
SV_01,CL_DOV_SV,SVSTDY,Num,8,source.AR_DOV_SV.SVSTDY,SV.SVSTDY,,,,SV_01.CL_DOV_SV.SVSTDY
SV_01,CL_DOV_SV,VISITDY,Num,8,source.AR_DOV_SV.VISITDY,SV.VISITDY,,,,SV_01.CL_DOV_SV.VISITDY
SV_01,CL_DOV_SV,DOMAIN,Char,2,'SV',SV.DOMAIN,,,,SV_01.CL_DOV_SV.DOMAIN
SV_01,CL_DOV_SV,SVENDTC,Char,19,'',SV.SVENDTC,,,,SV_01.CL_DOV_SV.SVENDTC
SV_01,CL_DOV_SV,SVENDY,Num,8,null,SV.SVENDY,,,,SV_01.CL_DOV_SV.SVENDY
SV_01,CL_DOV_SV,TELECONT,Char,30,source.AR_DOV_SV.TELECONT,SV.TELECONT,VISIT,,,SV_01.CL_DOV_SV.TELECONT
BS_01,CL_SCI_BS,STUDYID,Char,12,source.AR_SCI_BS.STUDYID,BS.PART_CL_SCI_BS.STUDYID,,,,BS_01.CL_SCI_BS.STUDYID
BS_01,CL_SCI_BS,USUBJID,Char,30,source.AR_SCI_BS.USUBJID,BS.PART_CL_SCI_BS.USUBJID,,,,BS_01.CL_SCI_BS.USUBJID
BS_01,CL_SCI_BS,VISIT,Char,60,source.AR_SCI_BS.VISIT,BS.PART_CL_SCI_BS.VISIT,,,,BS_01.CL_SCI_BS.VISIT
BS_01,CL_SCI_BS,BSSEQ,Num,8,source.AR_SCI_BS.BSSEQ,BS.PART_CL_SCI_BS.BSSEQ,,,,BS_01.CL_SCI_BS.BSSEQ
BS_01,CL_SCI_BS,BSGRPID,Char,40,source.AR_SCI_BS.BSGRPID,BS.PART_CL_SCI_BS.BSGRPID,,,,BS_01.CL_SCI_BS.BSGRPID
BS_01,CL_SCI_BS,BSSPID,Char,20,source.AR_SCI_BS.BSSPID,BS.PART_CL_SCI_BS.BSSPID,,,,BS_01.CL_SCI_BS.BSSPID
BS_01,CL_SCI_BS,VISITNUM,Num,8,source.AR_SCI_BS.VISITNUM,BS.PART_CL_SCI_BS.VISITNUM,,,,BS_01.CL_SCI_BS.VISITNUM
BS_01,CL_SCI_BS,BSBLFL,Char,1,source.AR_SCI_BS.BSBLFL,BS.PART_CL_SCI_BS.BSBLFL,,,,BS_01.CL_SCI_BS.BSBLFL
BS_01,CL_SCI_BS,BSDTC,Char,19,source.AR_SCI_BS.BSDTC,BS.PART_CL_SCI_BS.BSDTC,,,,BS_01.CL_SCI_BS.BSDTC
BS_01,CL_SCI_BS,BSDY,Num,8,source.AR_SCI_BS.BSDY,BS.PART_CL_SCI_BS.BSDY,,,,BS_01.CL_SCI_BS.BSDY
BS_01,CL_SCI_BS,BSORRES,Char,200,source.AR_SCI_BS.BSORRES,BS.PART_CL_SCI_BS.BSORRES,,,,BS_01.CL_SCI_BS.BSORRES
BS_01,CL_SCI_BS,BSREFID,Char,40,source.AR_SCI_BS.BSREFID,BS.PART_CL_SCI_BS.BSREFID,,,,BS_01.CL_SCI_BS.BSREFID
BS_01,CL_SCI_BS,BSSTRESC,Char,200,source.AR_SCI_BS.BSSTRESC,BS.PART_CL_SCI_BS.BSSTRESC,,,,BS_01.CL_SCI_BS.BSSTRESC
BS_01,CL_SCI_BS,BSTEST,Char,60,source.AR_SCI_BS.BSTEST,BS.PART_CL_SCI_BS.BSTEST,,,,BS_01.CL_SCI_BS.BSTEST
BS_01,CL_SCI_BS,BSTESTCD,Char,8,source.AR_SCI_BS.BSTESTCD,BS.PART_CL_SCI_BS.BSTESTCD,,,,BS_01.CL_SCI_BS.BSTESTCD
BS_01,CL_SCI_BS,BSTPT,Char,80,source.AR_SCI_BS.BSTPT,BS.PART_CL_SCI_BS.BSTPT,,,,BS_01.CL_SCI_BS.BSTPT
BS_01,CL_SCI_BS,BSTPTNUM,Num,8,source.AR_SCI_BS.BSTPTNUM,BS.PART_CL_SCI_BS.BSTPTNUM,,,,BS_01.CL_SCI_BS.BSTPTNUM
BS_01,CL_SCI_BS,EPOCH,Char,40,source.AR_SCI_BS.EPOCH,BS.PART_CL_SCI_BS.EPOCH,,,,BS_01.CL_SCI_BS.EPOCH
BS_01,CL_SCI_BS,TAETORD,Num,8,source.AR_SCI_BS.TAETORD,BS.PART_CL_SCI_BS.TAETORD,,,,BS_01.CL_SCI_BS.TAETORD
BS_01,CL_SCI_BS,VISITDY,Num,8,source.AR_SCI_BS.VISITDY,BS.PART_CL_SCI_BS.VISITDY,,,,BS_01.CL_SCI_BS.VISITDY
BS_01,CL_SCI_BS,DOMAIN,Char,2,'BS',BS.PART_CL_SCI_BS.DOMAIN,,,,BS_01.CL_SCI_BS.DOMAIN
BS_01,CL_SCI_BS,BSKITID,Char,20,source.AR_SCI_BS.BSKITID,BS.PART_CL_SCI_BS.BSKITID,,,,BS_01.CL_SCI_BS.BSKITID
BS_01,CL_SCI_BS,ELEMENT,Char,150,source.AR_SCI_BS.ELEMENT,BS.PART_CL_SCI_BS.ELEMENT,,,,BS_01.CL_SCI_BS.ELEMENT
BS_01,CL_SCI_BS,ETCD,Char,8,source.AR_SCI_BS.ETCD,BS.PART_CL_SCI_BS.ETCD,,,,BS_01.CL_SCI_BS.ETCD
DS_01,CL_DOLC_DS,STUDYID,Char,12,source.AR_DOLC_DS.STUDYID,DS.PART_DOLC_DS.STUDYID,,,,DS_01.CL_DOLC_DS.STUDYID
DS_01,CL_DOLC_DS,USUBJID,Char,30,source.AR_DOLC_DS.USUBJID,DS.PART_DOLC_DS.USUBJID,,,,DS_01.CL_DOLC_DS.USUBJID
DS_01,CL_DOLC_DS,VISIT,Char,60,source.AR_DOLC_DS.VISIT,DS.PART_DOLC_DS.VISIT,,,,DS_01.CL_DOLC_DS.VISIT
DS_01,CL_DOLC_DS,DSSEQ,Num,8,source.AR_DOLC_DS.DSSEQ,DS.PART_DOLC_DS.DSSEQ,,,,DS_01.CL_DOLC_DS.DSSEQ
DS_01,CL_DOLC_DS,DSGRPID,Char,40,source.AR_DOLC_DS.DSGRPID,DS.PART_DOLC_DS.DSGRPID,,,,DS_01.CL_DOLC_DS.DSGRPID
DS_01,CL_DOLC_DS,VISITNUM,Num,8,source.AR_DOLC_DS.VISITNUM,DS.PART_DOLC_DS.VISITNUM,,,,DS_01.CL_DOLC_DS.VISITNUM
DS_01,CL_DOLC_DS,DSCAT,Char,80,source.AR_DOLC_DS.DSCAT,DS.PART_DOLC_DS.DSCAT,,,,DS_01.CL_DOLC_DS.DSCAT
DS_01,CL_DOLC_DS,DSDECOD,Char,80,source.AR_DOLC_DS.DSDECOD,DS.PART_DOLC_DS.DSDECOD,,,,DS_01.CL_DOLC_DS.DSDECOD
DS_01,CL_DOLC_DS,DSSTDTC,Char,19,source.AR_DOLC_DS.DSSTDTC,DS.PART_DOLC_DS.DSSTDTC,,,,DS_01.CL_DOLC_DS.DSSTDTC
DS_01,CL_DOLC_DS,DSSTDY,Num,8,source.AR_DOLC_DS.DSSTDY,DS.PART_DOLC_DS.DSSTDY,,,,DS_01.CL_DOLC_DS.DSSTDY
DS_01,CL_DOLC_DS,DSTERM,Char,200,source.AR_DOLC_DS.DSTERM,DS.PART_DOLC_DS.DSTERM,,,,DS_01.CL_DOLC_DS.DSTERM
DS_01,CL_DOLC_DS,EPOCH,Char,40,"if (source.AR_DOLC_DS.DSCAT = 'DISPOSITION EVENT' ) source.AR_DOLC_DS.EPOCH  
else ''",DS.PART_DOLC_DS.EPOCH,,,,DS_01.CL_DOLC_DS.EPOCH
DS_01,CL_DOLC_DS,TAETORD,Num,8,source.AR_DOLC_DS.TAETORD,DS.PART_DOLC_DS.TAETORD,,,,DS_01.CL_DOLC_DS.TAETORD
DS_01,CL_DOLC_DS,DOMAIN,Char,2,'DS',DS.PART_DOLC_DS.DOMAIN,,,,DS_01.CL_DOLC_DS.DOMAIN
DS_01,CL_DOLC_DS,ELEMENT,Char,150,source.AR_DOLC_DS.ELEMENT,DS.PART_DOLC_DS.ELEMENT,,,,DS_01.CL_DOLC_DS.ELEMENT
DS_01,CL_DOLC_DS,ETCD,Char,8,source.AR_DOLC_DS.ETCD,DS.PART_DOLC_DS.ETCD,,,,DS_01.CL_DOLC_DS.ETCD
DS_01,CL_FBRC_ZE,USUBJID,Char,30,intermediate.FBRC_NOR.USUBJID,DS.PART_FBRC_ZE.USUBJID,,,,DS_01.CL_FBRC_ZE.USUBJID
DS_01,CL_FBRC_ZE,DSSEQ,Num,8,intermediate.FBRC_NOR.DSSEQ,DS.PART_FBRC_ZE.DSSEQ,,,,DS_01.CL_FBRC_ZE.DSSEQ
DS_01,CL_FBRC_ZE,DSGRPID,Char,40,source.AR_FBRC_ZE.ZEGRPID,DS.PART_FBRC_ZE.DSGRPID,,,,DS_01.CL_FBRC_ZE.DSGRPID
DS_01,CL_FBRC_ZE,DSSPID,Char,20,source.AR_FBRC_ZE.ZESPID,DS.PART_FBRC_ZE.DSSPID,,,,DS_01.CL_FBRC_ZE.DSSPID
DS_01,CL_FBRC_ZE,EPOCH,Char,40,"if (intermediate.FBRC_NOR.DSCAT = 'DISPOSITION EVENT' )  source.AR_FBRC_ZE.EPOCH
 else ''",DS.PART_FBRC_ZE.EPOCH,,,,DS_01.CL_FBRC_ZE.EPOCH
DS_01,CL_FBRC_ZE,TAETORD,Num,8,source.AR_FBRC_ZE.TAETORD,DS.PART_FBRC_ZE.TAETORD,,,,DS_01.CL_FBRC_ZE.TAETORD
DS_01,CL_FBRC_ZE,DSDECOD,Char,150,intermediate.REASON_JN.DECOD,DS.PART_FBRC_ZE.DSDECOD,,,,DS_01.CL_FBRC_ZE.DSDECOD
DS_01,CL_FBRC_ZE,DSSTDTC,Char,19,intermediate.FBRC_NOR.DSSTDTC,DS.PART_FBRC_ZE.DSSTDTC,,,,DS_01.CL_FBRC_ZE.DSSTDTC
DS_01,CL_FBRC_ZE,DSSTDY,Num,8,intermediate.FBRC_NOR.DSSTDY,DS.PART_FBRC_ZE.DSSTDY,,,,DS_01.CL_FBRC_ZE.DSSTDY
DS_01,CL_FBRC_ZE,DSTERM,Char,200,intermediate.FBRC_NOR.DSTERM,DS.PART_FBRC_ZE.DSTERM,,,,DS_01.CL_FBRC_ZE.DSTERM
DS_01,CL_FBRC_ZE,STUDYID,Char,12,source.AR_FBRC_ZE.STUDYID,DS.PART_FBRC_ZE.STUDYID,,,,DS_01.CL_FBRC_ZE.STUDYID
DS_01,CL_FBRC_ZE,DOMAIN,Char,30,'DS',DS.PART_FBRC_ZE.DOMAIN,,,,DS_01.CL_FBRC_ZE.DOMAIN
DS_01,CL_FBRC_ZE,ELEMENT,Char,150,source.AR_FBRC_ZE.ELEMENT,DS.PART_FBRC_ZE.ELEMENT,,,,DS_01.CL_FBRC_ZE.ELEMENT
DS_01,CL_FBRC_ZE,ETCD,Char,8,source.AR_FBRC_ZE.ETCD,DS.PART_FBRC_ZE.ETCD,,,,DS_01.CL_FBRC_ZE.ETCD
DS_01,CL_FBRC_ZE,DSREASON,Char,200,"if (source.AR_FBRC_ZE.ZETERM==""GENETIC AND BIOMEDICAL RESEARCH CONSENT"")
intermediate.REASON.REASON",DS.PART_FBRC_ZE.DSREASON,,,,DS_01.CL_FBRC_ZE.DSREASON
DS_01,CL_FBRC_ZE,VISIT,Char,60,source.AR_FBRC_ZE.VISIT,DS.PART_FBRC_ZE.VISIT,,,,DS_01.CL_FBRC_ZE.VISIT
DS_01,CL_FBRC_ZE,VISITNUM,Num,8,source.AR_FBRC_ZE.VISITNUM,DS.PART_FBRC_ZE.VISITNUM,,,,DS_01.CL_FBRC_ZE.VISITNUM
DS_01,CL_FBRC_ZE,DSCAT,Char,150,intermediate.FBRC_NOR.DSCAT,DS.PART_FBRC_ZE.DSCAT,,,,DS_01.CL_FBRC_ZE.DSCAT
DS_01,CL_PMS1_DS,STUDYID,Char,12,source.AR_PMS1_DS.STUDYID,DS.PART_PMS1_DS.STUDYID,,,,DS_01.CL_PMS1_DS.STUDYID
DS_01,CL_PMS1_DS,USUBJID,Char,30,source.AR_PMS1_DS.USUBJID,DS.PART_PMS1_DS.USUBJID,,,,DS_01.CL_PMS1_DS.USUBJID
DS_01,CL_PMS1_DS,VISIT,Char,60,source.AR_PMS1_DS.VISIT,DS.PART_PMS1_DS.VISIT,,,,DS_01.CL_PMS1_DS.VISIT
DS_01,CL_PMS1_DS,DSSEQ,Num,8,source.AR_PMS1_DS.DSSEQ,DS.PART_PMS1_DS.DSSEQ,,,,DS_01.CL_PMS1_DS.DSSEQ
DS_01,CL_PMS1_DS,DSGRPID,Char,40,source.AR_PMS1_DS.DSGRPID,DS.PART_PMS1_DS.DSGRPID,,,,DS_01.CL_PMS1_DS.DSGRPID
DS_01,CL_PMS1_DS,VISITNUM,Num,8,source.AR_PMS1_DS.VISITNUM,DS.PART_PMS1_DS.VISITNUM,,,,DS_01.CL_PMS1_DS.VISITNUM
DS_01,CL_PMS1_DS,DSCAT,Char,80,source.AR_PMS1_DS.DSCAT,DS.PART_PMS1_DS.DSCAT,,,,DS_01.CL_PMS1_DS.DSCAT
DS_01,CL_PMS1_DS,DSDECOD,Char,80,source.AR_PMS1_DS.DSDECOD,DS.PART_PMS1_DS.DSDECOD,,,,DS_01.CL_PMS1_DS.DSDECOD
DS_01,CL_PMS1_DS,DSREFID,Char,40,source.AR_PMS1_DS.DSREFID,DS.PART_PMS1_DS.DSREFID,,,,DS_01.CL_PMS1_DS.DSREFID
DS_01,CL_PMS1_DS,DSSCAT,Char,160,source.AR_PMS1_DS.DSSCAT,DS.PART_PMS1_DS.DSSCAT,,,,DS_01.CL_PMS1_DS.DSSCAT
DS_01,CL_PMS1_DS,DSSTDTC,Char,19,source.AR_PMS1_DS.DSSTDTC,DS.PART_PMS1_DS.DSSTDTC,,,,DS_01.CL_PMS1_DS.DSSTDTC
DS_01,CL_PMS1_DS,DSSTDY,Num,8,source.AR_PMS1_DS.DSSTDY,DS.PART_PMS1_DS.DSSTDY,,,,DS_01.CL_PMS1_DS.DSSTDY
DS_01,CL_PMS1_DS,DSTERM,Char,200,source.AR_PMS1_DS.DSTERM,DS.PART_PMS1_DS.DSTERM,,,,DS_01.CL_PMS1_DS.DSTERM
DS_01,CL_PMS1_DS,ELEMENT,Char,150,source.AR_PMS1_DS.ELEMENT,DS.PART_PMS1_DS.ELEMENT,,,,DS_01.CL_PMS1_DS.ELEMENT
DS_01,CL_PMS1_DS,EPOCH,Char,40,"if (source.AR_PMS1_DS.DSCAT = 'DISPOSITION EVENT' ) source.AR_PMS1_DS.EPOCH  
else ''",DS.PART_PMS1_DS.EPOCH,,,,DS_01.CL_PMS1_DS.EPOCH
DS_01,CL_PMS1_DS,ETCD,Char,8,source.AR_PMS1_DS.ETCD,DS.PART_PMS1_DS.ETCD,,,,DS_01.CL_PMS1_DS.ETCD
DS_01,CL_PMS1_DS,TAETORD,Num,8,source.AR_PMS1_DS.TAETORD,DS.PART_PMS1_DS.TAETORD,,,,DS_01.CL_PMS1_DS.TAETORD
DS_01,CL_PMS1_DS,DOMAIN,Char,12,'DS',DS.PART_PMS1_DS.DOMAIN,,,,DS_01.CL_PMS1_DS.DOMAIN
DS_01,CL_PMS1_DS,ADDSDTTS,Char,200,source.AR_PMS1_DS.ADDSDTTS,DS.PART_PMS1_DS.ADDSDTTS,,,,DS_01.CL_PMS1_DS.ADDSDTTS
DS_01,CL_PMS1_DS,ADDDSDTL,Char,200,source.AR_PMS1_DS.ADDDSDTL,DS.PART_PMS1_DS.ADDDSDTL,,,,DS_01.CL_PMS1_DS.ADDDSDTL
DS_01,CL_SR_DS,STUDYID,Char,12,source.AR_SR_DS.STUDYID,DS.PART_SR_DS.STUDYID,,,,DS_01.CL_SR_DS.STUDYID
DS_01,CL_SR_DS,USUBJID,Char,30,source.AR_SR_DS.USUBJID,DS.PART_SR_DS.USUBJID,,,,DS_01.CL_SR_DS.USUBJID
DS_01,CL_SR_DS,VISIT,Char,60,source.AR_SR_DS.VISIT,DS.PART_SR_DS.VISIT,,,,DS_01.CL_SR_DS.VISIT
DS_01,CL_SR_DS,DSSEQ,Num,8,source.AR_SR_DS.DSSEQ,DS.PART_SR_DS.DSSEQ,,,,DS_01.CL_SR_DS.DSSEQ
DS_01,CL_SR_DS,DSGRPID,Char,40,source.AR_SR_DS.DSGRPID,DS.PART_SR_DS.DSGRPID,,,,DS_01.CL_SR_DS.DSGRPID
DS_01,CL_SR_DS,VISITNUM,Num,8,source.AR_SR_DS.VISITNUM,DS.PART_SR_DS.VISITNUM,,,,DS_01.CL_SR_DS.VISITNUM
DS_01,CL_SR_DS,DSSTDTC,Char,19,source.AR_SR_DS.DSSTDTC,DS.PART_SR_DS.DSSTDTC,,,,DS_01.CL_SR_DS.DSSTDTC
DS_01,CL_SR_DS,DSSTDY,Num,8,source.AR_SR_DS.DSSTDY,DS.PART_SR_DS.DSSTDY,,,,DS_01.CL_SR_DS.DSSTDY
DS_01,CL_SR_DS,DSTERM,Char,200,"if(source.AR_SR_DS.DSTERM = ""RANDOMIZATION"") ""RANDOMIZED"" 
else source.AR_SR_DS.DSTERM",DS.PART_SR_DS.DSTERM,,,,DS_01.CL_SR_DS.DSTERM
DS_01,CL_SR_DS,DSCAT,Char,80,source.AR_SR_DS.DSCAT,DS.PART_SR_DS.DSCAT,,,,DS_01.CL_SR_DS.DSCAT
DS_01,CL_SR_DS,ELEMENT,Char,150,source.AR_SR_DS.ELEMENT,DS.PART_SR_DS.ELEMENT,,,,DS_01.CL_SR_DS.ELEMENT
DS_01,CL_SR_DS,EPOCH,Char,40,"if (source.AR_SR_DS.DSCAT = 'DISPOSITION EVENT' ) source.AR_SR_DS.EPOCH  
else ''",DS.PART_SR_DS.EPOCH,,,,DS_01.CL_SR_DS.EPOCH
DS_01,CL_SR_DS,ETCD,Char,8,source.AR_SR_DS.ETCD,DS.PART_SR_DS.ETCD,,,,DS_01.CL_SR_DS.ETCD
DS_01,CL_SR_DS,TAETORD,Num,8,source.AR_SR_DS.TAETORD,DS.PART_SR_DS.TAETORD,,,,DS_01.CL_SR_DS.TAETORD
DS_01,CL_SR_DS,DSDECOD,Char,80,"if(source.AR_SR_DS.DSDECOD = ""RANDOMIZATION"") ""RANDOMIZED"" 
else source.AR_SR_DS.DSDECOD",DS.PART_SR_DS.DSDECOD,,,,DS_01.CL_SR_DS.DSDECOD
DS_01,CL_SR_DS,DOMAIN,Char,12,'DS',DS.PART_SR_DS.DOMAIN,,,,DS_01.CL_SR_DS.DOMAIN
DS_01,CL_SSTC_ZF,STUDYID,Char,12,source.AR_SSTC_ZF.STUDYID,DS.PART_SSTC_ZF.STUDYID,,,,DS_01.CL_SSTC_ZF.STUDYID
DS_01,CL_SSTC_ZF,USUBJID,Char,30,source.AR_SSTC_ZF.USUBJID,DS.PART_SSTC_ZF.USUBJID,,,,DS_01.CL_SSTC_ZF.USUBJID
DS_01,CL_SSTC_ZF,VISIT,Char,60,source.AR_SSTC_ZF.VISIT,DS.PART_SSTC_ZF.VISIT,,,,DS_01.CL_SSTC_ZF.VISIT
DS_01,CL_SSTC_ZF,VISITNUM,Num,8,source.AR_SSTC_ZF.VISITNUM,DS.PART_SSTC_ZF.VISITNUM,,,,DS_01.CL_SSTC_ZF.VISITNUM
DS_01,CL_SSTC_ZF,DSGRPID,Char,40,source.AR_SSTC_ZF.ZFGRPID,DS.PART_SSTC_ZF.DSGRPID,,,,DS_01.CL_SSTC_ZF.DSGRPID
DS_01,CL_SSTC_ZF,DSSPID,Char,20,source.AR_SSTC_ZF.ZFSPID,DS.PART_SSTC_ZF.DSSPID,,,,DS_01.CL_SSTC_ZF.DSSPID
DS_01,CL_SSTC_ZF,ELEMENT,Char,150,source.AR_SSTC_ZF.ELEMENT,DS.PART_SSTC_ZF.ELEMENT,,,,DS_01.CL_SSTC_ZF.ELEMENT
DS_01,CL_SSTC_ZF,EPOCH,Char,40,'',DS.PART_SSTC_ZF.EPOCH,,,,DS_01.CL_SSTC_ZF.EPOCH
DS_01,CL_SSTC_ZF,ETCD,Char,8,source.AR_SSTC_ZF.ETCD,DS.PART_SSTC_ZF.ETCD,,,,DS_01.CL_SSTC_ZF.ETCD
DS_01,CL_SSTC_ZF,TAETORD,Num,8,source.AR_SSTC_ZF.TAETORD,DS.PART_SSTC_ZF.TAETORD,,,,DS_01.CL_SSTC_ZF.TAETORD
DS_01,CL_SSTC_ZF,DSSTDTC,Char,19,source.AR_SSTC_ZF.ZFDTC,DS.PART_SSTC_ZF.DSSTDTC,,,,DS_01.CL_SSTC_ZF.DSSTDTC
DS_01,CL_SSTC_ZF,DSSTDY,Num,8,source.AR_SSTC_ZF.ZFDY,DS.PART_SSTC_ZF.DSSTDY,,,,DS_01.CL_SSTC_ZF.DSSTDY
DS_01,CL_SSTC_ZF,DSTERM,Char,200,if((source.AR_SSTC_ZF.ZFTESTCD = 'SSTCOBT') && (source.AR_SSTC_ZF.ZFORRES ='Y')) 'INFORMED CONSENT FOR SUB-STUDY OBTAINED',DS.PART_SSTC_ZF.DSTERM,,,,DS_01.CL_SSTC_ZF.DSTERM
DS_01,CL_SSTC_ZF,DSREFID,Char,40,source.AR_SSTC_ZF.ZFREFID,DS.PART_SSTC_ZF.DSREFID,,,,DS_01.CL_SSTC_ZF.DSREFID
DS_01,CL_SSTC_ZF,DOMAIN,Char,12,'DS',DS.PART_SSTC_ZF.DOMAIN,,,,DS_01.CL_SSTC_ZF.DOMAIN
DS_01,CL_SSTC_ZF,DSCAT,Char,200,'PROTOCOL MILESTONE',DS.PART_SSTC_ZF.DSCAT,,,,DS_01.CL_SSTC_ZF.DSCAT
DS_01,CL_SSTC_ZF,DSSCAT,Char,200,source.AR_SSTC_ZF.ZFCAT,DS.PART_SSTC_ZF.DSSCAT,,,,DS_01.CL_SSTC_ZF.DSSCAT
DS_01,CL_SSTC_ZF,DSDECOD,Char,200,'INFORMED CONSENT OBTAINED',DS.PART_SSTC_ZF.DSDECOD,,,,DS_01.CL_SSTC_ZF.DSDECOD
DS_01,CL_SSTC_ZF,VISITDY,Num,8,source.AR_SSTC_ZF.VISITDY,DS.PART_SSTC_ZF.VISITDY,,,,DS_01.CL_SSTC_ZF.VISITDY
DS_01,CL_SSTC_ZF,DSSEQ,Num,8,source.AR_SSTC_ZF.ZFSEQ,DS.PART_SSTC_ZF.DSSEQ,,,,DS_01.CL_SSTC_ZF.DSSEQ
DS_01,MER_DS,,,0,,,,,,DS_01.MER_DS.
AE_01,CL_AE,STUDYID,Char,12,source.AR_AE.STUDYID,AE.STUDYID,,,,AE_01.CL_AE.STUDYID
AE_01,CL_AE,USUBJID,Char,30,source.AR_AE.USUBJID,AE.USUBJID,,,,AE_01.CL_AE.USUBJID
AE_01,CL_AE,VISIT,Char,60,source.AR_AE.VISIT,AE.VISIT,,,,AE_01.CL_AE.VISIT
AE_01,CL_AE,AESEQ,Num,8,source.AR_AE.AESEQ,AE.AESEQ,,,,AE_01.CL_AE.AESEQ
AE_01,CL_AE,AEGRPID,Char,40,source.AR_AE.AEGRPID,AE.AEGRPID,,,,AE_01.CL_AE.AEGRPID
AE_01,CL_AE,VISITNUM,Num,8,source.AR_AE.VISITNUM,AE.VISITNUM,,,,AE_01.CL_AE.VISITNUM
AE_01,CL_AE,AEACN,Char,17,source.AR_AE.AEACN,AE.AEACN,,,,AE_01.CL_AE.AEACN
AE_01,CL_AE,AEBDSYCD,Num,8,"input(source.AR_AE.AEBDSYCD,8.)",AE.AEBDSYCD,,,,AE_01.CL_AE.AEBDSYCD
AE_01,CL_AE,AEBODSYS,Char,100,source.AR_AE.AEBODSYS,AE.AEBODSYS,,,,AE_01.CL_AE.AEBODSYS
AE_01,CL_AE,AECAT,Char,80,source.AR_AE.AECAT,AE.AECAT,,,,AE_01.CL_AE.AECAT
AE_01,CL_AE,AEDECOD,Char,150,source.AR_AE.AEDECOD,AE.AEDECOD,,,,AE_01.CL_AE.AEDECOD
AE_01,CL_AE,AEDUR,Char,20,source.AR_AE.AEDUR,AE.AEDUR,,,,AE_01.CL_AE.AEDUR
AE_01,CL_AE,AEENDTC,Char,19,source.AR_AE.AEENDTC,AE.AEENDTC,,,,AE_01.CL_AE.AEENDTC
AE_01,CL_AE,AEENDY,Num,8,source.AR_AE.AEENDY,AE.AEENDY,,,,AE_01.CL_AE.AEENDY
AE_01,CL_AE,AEENRF,Char,15,source.AR_AE.AEENRF,AE.AEENRF,,,,AE_01.CL_AE.AEENRF
AE_01,CL_AE,AEHLGT,Char,150,source.AR_AE.AEHLGT,AE.AEHLGT,,,,AE_01.CL_AE.AEHLGT
AE_01,CL_AE,AEHLGTCD,Num,8,"input(source.AR_AE.AEHLGTCD,8.)",AE.AEHLGTCD,,,,AE_01.CL_AE.AEHLGTCD
AE_01,CL_AE,AEHLT,Char,150,source.AR_AE.AEHLT,AE.AEHLT,,,,AE_01.CL_AE.AEHLT
AE_01,CL_AE,AEHLTCD,Num,8,"input(source.AR_AE.AEHLTCD,8.)",AE.AEHLTCD,,,,AE_01.CL_AE.AEHLTCD
AE_01,CL_AE,AELAT,Char,50,source.AR_AE.AELAT,AE.AELAT,,,,AE_01.CL_AE.AELAT
AE_01,CL_AE,AELLT,Char,150,source.AR_AE.AELLT,AE.AELLT,,,,AE_01.CL_AE.AELLT
AE_01,CL_AE,AELLTCD,Num,8,"input(source.AR_AE.AELLTCD, 8.)",AE.AELLTCD,,,,AE_01.CL_AE.AELLTCD
AE_01,CL_AE,AELOC,Char,80,source.AR_AE.AELOC,AE.AELOC,,,,AE_01.CL_AE.AELOC
AE_01,CL_AE,AEOUT,Char,40,source.AR_AE.AEOUT,AE.AEOUT,,,,AE_01.CL_AE.AEOUT
AE_01,CL_AE,AEPTCD,Num,8,"input(source.AR_AE.AEPTCD,8.)",AE.AEPTCD,,,,AE_01.CL_AE.AEPTCD
AE_01,CL_AE,AEREL,Char,25,source.AR_AE.AEREL,AE.AEREL,,,,AE_01.CL_AE.AEREL
AE_01,CL_AE,AERELNST,Char,40,source.AR_AE.AERELNST,AE.AERELNST,,,,AE_01.CL_AE.AERELNST
AE_01,CL_AE,AESCAN,Char,2,source.AR_AE.AESCAN,AE.AESCAN,,,,AE_01.CL_AE.AESCAN
AE_01,CL_AE,AESCONG,Char,2,source.AR_AE.AESCONG,AE.AESCONG,,,,AE_01.CL_AE.AESCONG
AE_01,CL_AE,AESDISAB,Char,2,source.AR_AE.AESDISAB,AE.AESDISAB,,,,AE_01.CL_AE.AESDISAB
AE_01,CL_AE,AESDTH,Char,2,source.AR_AE.AESDTH,AE.AESDTH,,,,AE_01.CL_AE.AESDTH
AE_01,CL_AE,AESER,Char,2,source.AR_AE.AESER,AE.AESER,,,,AE_01.CL_AE.AESER
AE_01,CL_AE,AESEV,Char,20,source.AR_AE.AESEV,AE.AESEV,,,,AE_01.CL_AE.AESEV
AE_01,CL_AE,AESHOSP,Char,2,source.AR_AE.AESHOSP,AE.AESHOSP,,,,AE_01.CL_AE.AESHOSP
AE_01,CL_AE,AESLIFE,Char,2,source.AR_AE.AESLIFE,AE.AESLIFE,,,,AE_01.CL_AE.AESLIFE
AE_01,CL_AE,AESMIE,Char,2,source.AR_AE.AESMIE,AE.AESMIE,,,,AE_01.CL_AE.AESMIE
AE_01,CL_AE,AESOD,Char,2,source.AR_AE.AESOD,AE.AESOD,,,,AE_01.CL_AE.AESOD
AE_01,CL_AE,AESPID,Char,20,source.AR_AE.AESPID,AE.AESPID,,,,AE_01.CL_AE.AESPID
AE_01,CL_AE,AESTDTC,Char,19,source.AR_AE.AESTDTC,AE.AESTDTC,,,,AE_01.CL_AE.AESTDTC
AE_01,CL_AE,AESTDY,Num,8,source.AR_AE.AESTDY,AE.AESTDY,,,,AE_01.CL_AE.AESTDY
AE_01,CL_AE,AETERM,Char,200,lrtrim(source.AR_AE.AETERM),AE.AETERM,,,,AE_01.CL_AE.AETERM
AE_01,CL_AE,AETOXGR,Char,1,source.AR_AE.AETOXGR,AE.AETOXGR,,,,AE_01.CL_AE.AETOXGR
AE_01,CL_AE,EPOCH,Char,40,source.AR_AE.EPOCH,AE.EPOCH,,,,AE_01.CL_AE.EPOCH
AE_01,CL_AE,TAETORD,Num,8,source.AR_AE.TAETORD,AE.TAETORD,,,,AE_01.CL_AE.TAETORD
AE_01,CL_AE,DOMAIN,Char,2,'AE',AE.DOMAIN,,,,AE_01.CL_AE.DOMAIN
AE_01,CL_AE,AESOCCD,Num,8,NULL,AE.AESOCCD,,,,AE_01.CL_AE.AESOCCD
AE_01,CL_AE,AESOC,Char,200,'',AE.AESOC,,,,AE_01.CL_AE.AESOC
AE_01,CL_AE,ACN1,Char,17,source.AR_AE.ACN1,AE.ACN1,,,,AE_01.CL_AE.ACN1
AE_01,CL_AE,ACN10,Char,17,source.AR_AE.ACN10,AE.ACN10,,,,AE_01.CL_AE.ACN10
AE_01,CL_AE,ACN2,Char,17,source.AR_AE.ACN2,AE.ACN2,,,,AE_01.CL_AE.ACN2
AE_01,CL_AE,ACN3,Char,17,source.AR_AE.ACN3,AE.ACN3,,,,AE_01.CL_AE.ACN3
AE_01,CL_AE,ACN4,Char,17,source.AR_AE.ACN4,AE.ACN4,,,,AE_01.CL_AE.ACN4
AE_01,CL_AE,ACN5,Char,17,source.AR_AE.ACN5,AE.ACN5,,,,AE_01.CL_AE.ACN5
AE_01,CL_AE,ACN6,Char,17,source.AR_AE.ACN6,AE.ACN6,,,,AE_01.CL_AE.ACN6
AE_01,CL_AE,ACN7,Char,17,source.AR_AE.ACN7,AE.ACN7,,,,AE_01.CL_AE.ACN7
AE_01,CL_AE,ACN8,Char,17,source.AR_AE.ACN8,AE.ACN8,,,,AE_01.CL_AE.ACN8
AE_01,CL_AE,ACN9,Char,17,source.AR_AE.ACN9,AE.ACN9,,,,AE_01.CL_AE.ACN9
AE_01,CL_AE,AEACNBLD,Char,17,source.AR_AE.AEACNBLD,AE.AEACNBLD,,,,AE_01.CL_AE.AEACNBLD
AE_01,CL_AE,AECLINT,Char,2,source.AR_AE.AECLINT,AE.AECLINT,,,,AE_01.CL_AE.AECLINT
AE_01,CL_AE,AEDOSTOX,Char,2,source.AR_AE.AEDOSTOX,AE.AEDOSTOX,,,,AE_01.CL_AE.AEDOSTOX
AE_01,CL_AE,AEDTHAUT,Char,3,source.AR_AE.AEDTHAUT,AE.AEDTHAUT,,,,AE_01.CL_AE.AEDTHAUT
AE_01,CL_AE,AEIMMUNR,Char,12,source.AR_AE.AEIMMUNR,AE.AEIMMUNR,,,,AE_01.CL_AE.AEIMMUNR
AE_01,CL_AE,AESDCH,Char,2,source.AR_AE.AESDCH,AE.AESDCH,,,,AE_01.CL_AE.AESDCH
AE_01,CL_AE,AESDCH1,Char,2,source.AR_AE.AESDCH1,AE.AESDCH1,,,,AE_01.CL_AE.AESDCH1
AE_01,CL_AE,AESDCH10,Char,2,source.AR_AE.AESDCH10,AE.AESDCH10,,,,AE_01.CL_AE.AESDCH10
AE_01,CL_AE,AESDCH2,Char,2,source.AR_AE.AESDCH2,AE.AESDCH2,,,,AE_01.CL_AE.AESDCH2
AE_01,CL_AE,AESDCH3,Char,2,source.AR_AE.AESDCH3,AE.AESDCH3,,,,AE_01.CL_AE.AESDCH3
AE_01,CL_AE,AESDCH4,Char,2,source.AR_AE.AESDCH4,AE.AESDCH4,,,,AE_01.CL_AE.AESDCH4
AE_01,CL_AE,AESDCH5,Char,2,source.AR_AE.AESDCH5,AE.AESDCH5,,,,AE_01.CL_AE.AESDCH5
AE_01,CL_AE,AESDCH6,Char,2,source.AR_AE.AESDCH6,AE.AESDCH6,,,,AE_01.CL_AE.AESDCH6
AE_01,CL_AE,AESDCH7,Char,2,source.AR_AE.AESDCH7,AE.AESDCH7,,,,AE_01.CL_AE.AESDCH7
AE_01,CL_AE,AESDCH8,Char,2,source.AR_AE.AESDCH8,AE.AESDCH8,,,,AE_01.CL_AE.AESDCH8
AE_01,CL_AE,AESDCH9,Char,2,source.AR_AE.AESDCH9,AE.AESDCH9,,,,AE_01.CL_AE.AESDCH9
AE_01,CL_AE,AESRCH,Char,2,source.AR_AE.AESRCH,AE.AESRCH,,,,AE_01.CL_AE.AESRCH
AE_01,CL_AE,AESRCH1,Char,2,source.AR_AE.AESRCH1,AE.AESRCH1,,,,AE_01.CL_AE.AESRCH1
AE_01,CL_AE,AESRCH10,Char,2,source.AR_AE.AESRCH10,AE.AESRCH10,,,,AE_01.CL_AE.AESRCH10
AE_01,CL_AE,AESRCH2,Char,2,source.AR_AE.AESRCH2,AE.AESRCH2,,,,AE_01.CL_AE.AESRCH2
AE_01,CL_AE,AESRCH3,Char,2,source.AR_AE.AESRCH3,AE.AESRCH3,,,,AE_01.CL_AE.AESRCH3
AE_01,CL_AE,AESRCH4,Char,2,source.AR_AE.AESRCH4,AE.AESRCH4,,,,AE_01.CL_AE.AESRCH4
AE_01,CL_AE,AESRCH5,Char,2,source.AR_AE.AESRCH5,AE.AESRCH5,,,,AE_01.CL_AE.AESRCH5
AE_01,CL_AE,AESRCH6,Char,2,source.AR_AE.AESRCH6,AE.AESRCH6,,,,AE_01.CL_AE.AESRCH6
AE_01,CL_AE,AESRCH7,Char,2,source.AR_AE.AESRCH7,AE.AESRCH7,,,,AE_01.CL_AE.AESRCH7
AE_01,CL_AE,AESRCH8,Char,2,source.AR_AE.AESRCH8,AE.AESRCH8,,,,AE_01.CL_AE.AESRCH8
AE_01,CL_AE,AESRCH9,Char,2,source.AR_AE.AESRCH9,AE.AESRCH9,,,,AE_01.CL_AE.AESRCH9
AE_01,CL_AE,ELEMENT,Char,150,source.AR_AE.ELEMENT,AE.ELEMENT,,,,AE_01.CL_AE.ELEMENT
AE_01,CL_AE,ETCD,Char,8,source.AR_AE.ETCD,AE.ETCD,,,,AE_01.CL_AE.ETCD
AE_01,CL_AE,REL1,Char,25,source.AR_AE.REL1,AE.REL1,,,,AE_01.CL_AE.REL1
AE_01,CL_AE,REL10,Char,25,source.AR_AE.REL10,AE.REL10,,,,AE_01.CL_AE.REL10
AE_01,CL_AE,REL2,Char,25,source.AR_AE.REL2,AE.REL2,,,,AE_01.CL_AE.REL2
AE_01,CL_AE,REL3,Char,25,source.AR_AE.REL3,AE.REL3,,,,AE_01.CL_AE.REL3
AE_01,CL_AE,REL4,Char,25,source.AR_AE.REL4,AE.REL4,,,,AE_01.CL_AE.REL4
AE_01,CL_AE,REL5,Char,25,source.AR_AE.REL5,AE.REL5,,,,AE_01.CL_AE.REL5
AE_01,CL_AE,REL6,Char,25,source.AR_AE.REL6,AE.REL6,,,,AE_01.CL_AE.REL6
AE_01,CL_AE,REL7,Char,25,source.AR_AE.REL7,AE.REL7,,,,AE_01.CL_AE.REL7
AE_01,CL_AE,REL8,Char,25,source.AR_AE.REL8,AE.REL8,,,,AE_01.CL_AE.REL8
AE_01,CL_AE,REL9,Char,25,source.AR_AE.REL9,AE.REL9,,,,AE_01.CL_AE.REL9
AE_01,CL_AE,RELBLD,Char,128,source.AR_AE.RELBLD,AE.RELBLD,,,,AE_01.CL_AE.RELBLD
AE_01,CL_AE,RELPR,Char,40,source.AR_AE.RELPR,AE.RELPR,,,,AE_01.CL_AE.RELPR
AE_01,CL_AE,SM1,Char,150,source.AR_AE.SM1,AE.SM1,,"""CLINICAL STUDY SPONSOR""",,AE_01.CL_AE.SM1
AE_01,CL_AE,SM10,Char,150,source.AR_AE.SM10,AE.SM10,,"""CLINICAL STUDY SPONSOR""",,AE_01.CL_AE.SM10
AE_01,CL_AE,SM2,Char,150,source.AR_AE.SM2,AE.SM2,,"""CLINICAL STUDY SPONSOR""",,AE_01.CL_AE.SM2
AE_01,CL_AE,SM3,Char,150,source.AR_AE.SM3,AE.SM3,,"""CLINICAL STUDY SPONSOR""",,AE_01.CL_AE.SM3
AE_01,CL_AE,SM4,Char,150,source.AR_AE.SM4,AE.SM4,,"""CLINICAL STUDY SPONSOR""",,AE_01.CL_AE.SM4
AE_01,CL_AE,SM5,Char,150,source.AR_AE.SM5,AE.SM5,,"""CLINICAL STUDY SPONSOR""",,AE_01.CL_AE.SM5
AE_01,CL_AE,SM6,Char,150,source.AR_AE.SM6,AE.SM6,,"""CLINICAL STUDY SPONSOR""",,AE_01.CL_AE.SM6
AE_01,CL_AE,SM7,Char,150,source.AR_AE.SM7,AE.SM7,,"""CLINICAL STUDY SPONSOR""",,AE_01.CL_AE.SM7
AE_01,CL_AE,SM8,Char,150,source.AR_AE.SM8,AE.SM8,,"""CLINICAL STUDY SPONSOR""",,AE_01.CL_AE.SM8
AE_01,CL_AE,SM9,Char,150,source.AR_AE.SM9,AE.SM9,,"""CLINICAL STUDY SPONSOR""",,AE_01.CL_AE.SM9
AE_01,CL_AE,SMB,Char,30,source.AR_AE.SMB,AE.SMB,,"""CLINICAL STUDY SPONSOR""",,AE_01.CL_AE.SMB
AE_01,CL_AE,STPRTDSC,Char,3,source.AR_AE.STPRTDSC,AE.STPRTDSC,,,,AE_01.CL_AE.STPRTDSC
AE_01,CL_AE,SPDYRLEP,Char,200,"lrtrim(left(put(source.AR_AE.SPDYRLEP,""BEST16."")))",AE.SPDYRLEP,,,,AE_01.CL_AE.SPDYRLEP
AE_01,CL_AE,STDYRLEP,Char,200,"lrtrim(left(put(source.AR_AE.STDYRLEP,""BEST16."")))",AE.STDYRLEP,,,,AE_01.CL_AE.STDYRLEP
AE_01,CL_AE,AESIZE,Char,200,"lrtrim(left(put(source.AR_AE.AESIZE,""BEST16."")))",AE.AESIZE,,,,AE_01.CL_AE.AESIZE
AE_01,CL_AE,AESIZEU,Char,25,source.AR_AE.AESIZEU,AE.AESIZEU,,,,AE_01.CL_AE.AESIZEU
AE_01,CL_AE,AEDURDD,Char,200,"lrtrim(left(put(source.AR_AE.AEDURDD,""BEST16."")))",AE.AEDURDD,,,,AE_01.CL_AE.AEDURDD
AE_01,CL_AE,AEDURDDU,Char,20,source.AR_AE.AEDURDDU,AE.AEDURDDU,,,,AE_01.CL_AE.AEDURDDU
AE_01,CL_AE,AESOURCE,Char,200,source.AR_AE.AESOURCE,AE.AESOURCE,,,,AE_01.CL_AE.AESOURCE
AE_01,CL_AE,AESCAT,Char,200,source.AR_AE.AESCAT,AE.AESCAT,,,,AE_01.CL_AE.AESCAT
PR_01,CL_PROC_PR,STUDYID,Char,12,source.AR_PROC_PR.STUDYID,PR.PART_PROC_PR.STUDYID,,,,PR_01.CL_PROC_PR.STUDYID
PR_01,CL_PROC_PR,USUBJID,Char,30,source.AR_PROC_PR.USUBJID,PR.PART_PROC_PR.USUBJID,,,,PR_01.CL_PROC_PR.USUBJID
PR_01,CL_PROC_PR,VISIT,Char,60,source.AR_PROC_PR.VISIT,PR.PART_PROC_PR.VISIT,,,,PR_01.CL_PROC_PR.VISIT
PR_01,CL_PROC_PR,PRSEQ,Num,8,source.AR_PROC_PR.PRSEQ,PR.PART_PROC_PR.PRSEQ,,,,PR_01.CL_PROC_PR.PRSEQ
PR_01,CL_PROC_PR,PRGRPID,Char,40,source.AR_PROC_PR.PRGRPID,PR.PART_PROC_PR.PRGRPID,,,,PR_01.CL_PROC_PR.PRGRPID
PR_01,CL_PROC_PR,VISITNUM,Num,8,source.AR_PROC_PR.VISITNUM,PR.PART_PROC_PR.VISITNUM,,,,PR_01.CL_PROC_PR.VISITNUM
PR_01,CL_PROC_PR,EPOCH,Char,40,source.AR_PROC_PR.EPOCH,PR.PART_PROC_PR.EPOCH,,,,PR_01.CL_PROC_PR.EPOCH
PR_01,CL_PROC_PR,PRDECOD,Char,150,source.AR_PROC_PR.PRDECOD,PR.PART_PROC_PR.PRDECOD,,,,PR_01.CL_PROC_PR.PRDECOD
PR_01,CL_PROC_PR,PRENDTC,Char,19,source.AR_PROC_PR.PRENDTC,PR.PART_PROC_PR.PRENDTC,,,,PR_01.CL_PROC_PR.PRENDTC
PR_01,CL_PROC_PR,PRENDY,Num,8,source.AR_PROC_PR.PRENDY,PR.PART_PROC_PR.PRENDY,,,,PR_01.CL_PROC_PR.PRENDY
PR_01,CL_PROC_PR,PRINDC,Char,200,source.AR_PROC_PR.PRINDC,PR.PART_PROC_PR.PRINDC,,,,PR_01.CL_PROC_PR.PRINDC
PR_01,CL_PROC_PR,PRBODLAT,Char,20,source.AR_PROC_PR.PRSIDE,PR.PART_PROC_PR.PRBODLAT,,,,PR_01.CL_PROC_PR.PRBODLAT
PR_01,CL_PROC_PR,PRSPID,Char,20,source.AR_PROC_PR.PRSPID,PR.PART_PROC_PR.PRSPID,,,,PR_01.CL_PROC_PR.PRSPID
PR_01,CL_PROC_PR,PRSTDTC,Char,19,source.AR_PROC_PR.PRSTDTC,PR.PART_PROC_PR.PRSTDTC,,,,PR_01.CL_PROC_PR.PRSTDTC
PR_01,CL_PROC_PR,PRSTDY,Num,8,source.AR_PROC_PR.PRSTDY,PR.PART_PROC_PR.PRSTDY,,,,PR_01.CL_PROC_PR.PRSTDY
PR_01,CL_PROC_PR,PRTRT,Char,255,source.AR_PROC_PR.PRTRT,PR.PART_PROC_PR.PRTRT,,,,PR_01.CL_PROC_PR.PRTRT
PR_01,CL_PROC_PR,TAETORD,Num,8,source.AR_PROC_PR.TAETORD,PR.PART_PROC_PR.TAETORD,,,,PR_01.CL_PROC_PR.TAETORD
PR_01,CL_PROC_PR,DOMAIN,Char,2,'PR',PR.PART_PROC_PR.DOMAIN,,,,PR_01.CL_PROC_PR.DOMAIN
PR_01,CL_PROC_PR,ELEMENT,Char,150,source.AR_PROC_PR.ELEMENT,PR.PART_PROC_PR.ELEMENT,,,,PR_01.CL_PROC_PR.ELEMENT
PR_01,CL_PROC_PR,ETCD,Char,8,source.AR_PROC_PR.ETCD,PR.PART_PROC_PR.ETCD,,,,PR_01.CL_PROC_PR.ETCD
PR_01,CL_PROC_PR,PRBDSYCD,Char,8,source.AR_PROC_PR.PRBDSYCD,PR.PART_PROC_PR.PRBDSYCD,,,,PR_01.CL_PROC_PR.PRBDSYCD
PR_01,CL_PROC_PR,PRBODLOC,Char,80,source.AR_PROC_PR.PRBODLOC,PR.PART_PROC_PR.PRBODLOC,,,,PR_01.CL_PROC_PR.PRBODLOC
PR_01,CL_PROC_PR,PRBODSYS,Char,100,source.AR_PROC_PR.PRBODSYS,PR.PART_PROC_PR.PRBODSYS,,,,PR_01.CL_PROC_PR.PRBODSYS
PR_01,CL_PROC_PR,PRHLGT,Char,150,source.AR_PROC_PR.PRHLGT,PR.PART_PROC_PR.PRHLGT,,,,PR_01.CL_PROC_PR.PRHLGT
PR_01,CL_PROC_PR,PRHLGTCD,Char,8,source.AR_PROC_PR.PRHLGTCD,PR.PART_PROC_PR.PRHLGTCD,,,,PR_01.CL_PROC_PR.PRHLGTCD
PR_01,CL_PROC_PR,PRHLT,Char,150,source.AR_PROC_PR.PRHLT,PR.PART_PROC_PR.PRHLT,,,,PR_01.CL_PROC_PR.PRHLT
PR_01,CL_PROC_PR,PRHLTCD,Char,8,source.AR_PROC_PR.PRHLTCD,PR.PART_PROC_PR.PRHLTCD,,,,PR_01.CL_PROC_PR.PRHLTCD
PR_01,CL_PROC_PR,PRLLT,Char,150,source.AR_PROC_PR.PRLLT,PR.PART_PROC_PR.PRLLT,,,,PR_01.CL_PROC_PR.PRLLT
PR_01,CL_PROC_PR,PRLLTCD,Char,8,source.AR_PROC_PR.PRLLTCD,PR.PART_PROC_PR.PRLLTCD,,,,PR_01.CL_PROC_PR.PRLLTCD
PR_01,CL_PROC_PR,PRPTCD,Char,8,source.AR_PROC_PR.PRPTCD,PR.PART_PROC_PR.PRPTCD,,,,PR_01.CL_PROC_PR.PRPTCD
PR_01,CL_PROC_PR,PRRELSAE,Char,2,source.AR_PROC_PR.PRRELSAE,PR.PART_PROC_PR.PRRELSAE,,,,PR_01.CL_PROC_PR.PRRELSAE
PR_01,CL_PROC_PR,SPDYRLEP,Char,200,"lrtrim(left(put(source.AR_PROC_PR.SPDYRLEP,""BEST16."")))",PR.PART_PROC_PR.SPDYRLEP,,,,PR_01.CL_PROC_PR.SPDYRLEP
PR_01,CL_PROC_PR,STDYRLEP,Char,200,"lrtrim(left(put(source.AR_PROC_PR.STDYRLEP,""BEST16."")))",PR.PART_PROC_PR.STDYRLEP,,,,PR_01.CL_PROC_PR.STDYRLEP
PR_01,MER_PR,,,0,,,,,,PR_01.MER_PR.
IE_01,CL_IE,STUDYID,Char,12,source.AR_IE.STUDYID,IE.STUDYID,,,,IE_01.CL_IE.STUDYID
IE_01,CL_IE,USUBJID,Char,30,source.AR_IE.USUBJID,IE.USUBJID,,,,IE_01.CL_IE.USUBJID
IE_01,CL_IE,IESEQ,Num,8,source.AR_IE.IESEQ,IE.IESEQ,,,,IE_01.CL_IE.IESEQ
IE_01,CL_IE,IEGRPID,Char,40,source.AR_IE.IEGRPID,IE.IEGRPID,,,,IE_01.CL_IE.IEGRPID
IE_01,CL_IE,VISITNUM,Num,8,source.AR_IE.VISITNUM,IE.VISITNUM,,,,IE_01.CL_IE.VISITNUM
IE_01,CL_IE,IEORRES,Char,10,source.AR_IE.IEORRES,IE.IEORRES,,,,IE_01.CL_IE.IEORRES
IE_01,CL_IE,IESTRESC,Char,10,source.AR_IE.IESTRESC,IE.IESTRESC,,,,IE_01.CL_IE.IESTRESC
IE_01,CL_IE,IETEST,Char,4000,source.AR_IE.IETEST,IE.IETEST,,,,IE_01.CL_IE.IETEST
IE_01,CL_IE,IETESTCD,Char,20,source.AR_IE.IETESTCD,IE.IETESTCD,,,,IE_01.CL_IE.IETESTCD
IE_01,CL_IE,EPOCH,Char,40,source.AR_IE.EPOCH,IE.EPOCH,,,,IE_01.CL_IE.EPOCH
IE_01,CL_IE,TAETORD,Num,8,source.AR_IE.TAETORD,IE.TAETORD,,,,IE_01.CL_IE.TAETORD
IE_01,CL_IE,VISITDY,Num,8,source.AR_IE.VISITDY,IE.VISITDY,,,,IE_01.CL_IE.VISITDY
IE_01,CL_IE,IEDY,Num,8,source.AR_IE.IEDY,IE.IEDY,,,,IE_01.CL_IE.IEDY
IE_01,CL_IE,VISIT,Char,60,source.AR_IE.VISIT,IE.VISIT,,,,IE_01.CL_IE.VISIT
IE_01,CL_IE,DOMAIN,Char,2,'IE',IE.DOMAIN,,,,IE_01.CL_IE.DOMAIN
IE_01,CL_IE,IEDTC,Char,19,source.AR_IE.IEDTC,IE.IEDTC,,,,IE_01.CL_IE.IEDTC
IE_01,CL_IE,IECAT,Char,25,source.AR_IE.IECAT,IE.IECAT,,,,IE_01.CL_IE.IECAT
IE_01,CL_IE,ELEMENT,Char,150,source.AR_IE.ELEMENT,IE.ELEMENT,,,,IE_01.CL_IE.ELEMENT
IE_01,CL_IE,IEPROTV,Char,19,source.AR_IE.IEPROTV,IE.IEPROTV,,,,IE_01.CL_IE.IEPROTV
IE_01,CL_IE,ETCD,Char,200,source.AR_IE.ETCD,IE.ETCD,,,,IE_01.CL_IE.ETCD
MI_01,CL_SLAB_PH,STUDYID,Char,12,source.AR_SLAB_PH.STUDYID,MI.PART_CL_SLAB_PH.STUDYID,,,,MI_01.CL_SLAB_PH.STUDYID
MI_01,CL_SLAB_PH,USUBJID,Char,30,source.AR_SLAB_PH.USUBJID,MI.PART_CL_SLAB_PH.USUBJID,,,,MI_01.CL_SLAB_PH.USUBJID
MI_01,CL_SLAB_PH,VISIT,Char,60,source.AR_SLAB_PH.VISIT,MI.PART_CL_SLAB_PH.VISIT,,,,MI_01.CL_SLAB_PH.VISIT
MI_01,CL_SLAB_PH,PHSEQ,Num,8,source.AR_SLAB_PH.PHSEQ,MI.PART_CL_SLAB_PH.MISEQ,,,,MI_01.CL_SLAB_PH.PHSEQ
MI_01,CL_SLAB_PH,PHGRPID,Char,40,source.AR_SLAB_PH.PHGRPID,MI.PART_CL_SLAB_PH.MIGRPID,,,,MI_01.CL_SLAB_PH.PHGRPID
MI_01,CL_SLAB_PH,PHSPID,Char,20,source.AR_SLAB_PH.PHSPID,MI.PART_CL_SLAB_PH.MISPID,,,,MI_01.CL_SLAB_PH.PHSPID
MI_01,CL_SLAB_PH,VISITNUM,Num,8,source.AR_SLAB_PH.VISITNUM,MI.PART_CL_SLAB_PH.VISITNUM,,,,MI_01.CL_SLAB_PH.VISITNUM
MI_01,CL_SLAB_PH,EPOCH,Char,40,source.AR_SLAB_PH.EPOCH,MI.PART_CL_SLAB_PH.EPOCH,,,,MI_01.CL_SLAB_PH.EPOCH
MI_01,CL_SLAB_PH,PHBLFL,Char,1,source.AR_SLAB_PH.PHBLFL,MI.PART_CL_SLAB_PH.MIBLFL,,,,MI_01.CL_SLAB_PH.PHBLFL
MI_01,CL_SLAB_PH,PHCAT,Char,80,source.AR_SLAB_PH.PHCAT,MI.PART_CL_SLAB_PH.MICAT,,,,MI_01.CL_SLAB_PH.PHCAT
MI_01,CL_SLAB_PH,PHDTC,Char,19,source.AR_SLAB_PH.PHDTC,MI.PART_CL_SLAB_PH.MIDTC,,,,MI_01.CL_SLAB_PH.PHDTC
MI_01,CL_SLAB_PH,PHDY,Num,8,source.AR_SLAB_PH.PHDY,MI.PART_CL_SLAB_PH.MIDY,,,,MI_01.CL_SLAB_PH.PHDY
MI_01,CL_SLAB_PH,PHORRES,Char,200,source.AR_SLAB_PH.PHORRES,MI.PART_CL_SLAB_PH.MIORRES,,,,MI_01.CL_SLAB_PH.PHORRES
MI_01,CL_SLAB_PH,PHSPEC,Char,40,source.AR_SLAB_PH.PHSPEC,MI.PART_CL_SLAB_PH.MISPEC,,,,MI_01.CL_SLAB_PH.PHSPEC
MI_01,CL_SLAB_PH,PHSTRESC,Char,200,source.AR_SLAB_PH.PHSTRESC,MI.PART_CL_SLAB_PH.MISTRESC,,,,MI_01.CL_SLAB_PH.PHSTRESC
MI_01,CL_SLAB_PH,PHTEST,Char,60,source.AR_SLAB_PH.PHTEST,MI.PART_CL_SLAB_PH.MITEST,,,,MI_01.CL_SLAB_PH.PHTEST
MI_01,CL_SLAB_PH,PHTESTCD,Char,8,source.AR_SLAB_PH.PHTESTCD,MI.PART_CL_SLAB_PH.MITESTCD,,,,MI_01.CL_SLAB_PH.PHTESTCD
MI_01,CL_SLAB_PH,TAETORD,Num,8,source.AR_SLAB_PH.TAETORD,MI.PART_CL_SLAB_PH.TAETORD,,,,MI_01.CL_SLAB_PH.TAETORD
MI_01,CL_SLAB_PH,VISITDY,Num,8,source.AR_SLAB_PH.VISITDY,MI.PART_CL_SLAB_PH.VISITDY,,,,MI_01.CL_SLAB_PH.VISITDY
MI_01,CL_SLAB_PH,DOMAIN,Char,2,'MI',MI.PART_CL_SLAB_PH.DOMAIN,,,,MI_01.CL_SLAB_PH.DOMAIN
MI_01,CL_SLAB_PH,ELEMENT,Char,150,source.AR_SLAB_PH.ELEMENT,MI.PART_CL_SLAB_PH.ELEMENT,,,,MI_01.CL_SLAB_PH.ELEMENT
MI_01,CL_SLAB_PH,ETCD,Char,8,source.AR_SLAB_PH.ETCD,MI.PART_CL_SLAB_PH.ETCD,,,,MI_01.CL_SLAB_PH.ETCD
MI_01,CL_SLAB_PH,MICLMETH,Char,20,"if(source.AR_SLAB_PH.SPECCMTH= 'ASPIRATE') 'FINE NEEDLE ASPIRATION'
else source.AR_SLAB_PH.SPECCMTH",MI.PART_CL_SLAB_PH.MICLMETH,,,,MI_01.CL_SLAB_PH.MICLMETH
CE_01,CL_COUGHE_EDT_CE,STUDYID,Char,12,source.AR_COUGHE_EDT_CE.STUDYID,CE.PART_CE_COUGH.STUDYID,,,,CE_01.CL_COUGHE_EDT_CE.STUDYID
CE_01,CL_COUGHE_EDT_CE,USUBJID,Char,30,source.AR_COUGHE_EDT_CE.USUBJID,CE.PART_CE_COUGH.USUBJID,,,,CE_01.CL_COUGHE_EDT_CE.USUBJID
CE_01,CL_COUGHE_EDT_CE,VISIT,Char,60,source.AR_COUGHE_EDT_CE.VISIT,CE.PART_CE_COUGH.VISIT,,,,CE_01.CL_COUGHE_EDT_CE.VISIT
CE_01,CL_COUGHE_EDT_CE,CESEQ,Num,8,source.AR_COUGHE_EDT_CE.CESEQ,CE.PART_CE_COUGH.CESEQ,,,,CE_01.CL_COUGHE_EDT_CE.CESEQ
CE_01,CL_COUGHE_EDT_CE,CEREFID,Char,200,source.AR_COUGHE_EDT_CE.CEREFID,CE.PART_CE_COUGH.CEREFID,,,,CE_01.CL_COUGHE_EDT_CE.CEREFID
CE_01,CL_COUGHE_EDT_CE,CETERM,Char,200,source.AR_COUGHE_EDT_CE.CETERM,CE.PART_CE_COUGH.CETERM,,,,CE_01.CL_COUGHE_EDT_CE.CETERM
CE_01,CL_COUGHE_EDT_CE,VISITNUM,Num,8,source.AR_COUGHE_EDT_CE.VISITNUM,CE.PART_CE_COUGH.VISITNUM,,,,CE_01.CL_COUGHE_EDT_CE.VISITNUM
CE_01,CL_COUGHE_EDT_CE,CECAT,Char,80,"""COUGH MONITORING""",CE.PART_CE_COUGH.CECAT,,,,CE_01.CL_COUGHE_EDT_CE.CECAT
CE_01,CL_COUGHE_EDT_CE,CEGRPID,Char,40,source.AR_COUGHE_EDT_CE.CEGRPID,CE.PART_CE_COUGH.CEGRPID,,,,CE_01.CL_COUGHE_EDT_CE.CEGRPID
CE_01,CL_COUGHE_EDT_CE,CEOCCUR,Char,20,source.AR_COUGHE_EDT_CE.CEOCCUR,CE.PART_CE_COUGH.CEOCCUR,,,,CE_01.CL_COUGHE_EDT_CE.CEOCCUR
CE_01,CL_COUGHE_EDT_CE,CEPRESP,Char,2,source.AR_COUGHE_EDT_CE.CEPRESP,CE.PART_CE_COUGH.CEPRESP,,,,CE_01.CL_COUGHE_EDT_CE.CEPRESP
CE_01,CL_COUGHE_EDT_CE,CESPID,Char,20,source.AR_COUGHE_EDT_CE.CESPID,CE.PART_CE_COUGH.CESPID,,,,CE_01.CL_COUGHE_EDT_CE.CESPID
CE_01,CL_COUGHE_EDT_CE,CESTDTC,Char,19,source.AR_COUGHE_EDT_CE.CESTDTC,CE.PART_CE_COUGH.CESTDTC,,,,CE_01.CL_COUGHE_EDT_CE.CESTDTC
CE_01,CL_COUGHE_EDT_CE,CESTDY,Num,8,source.AR_COUGHE_EDT_CE.CESTDY,CE.PART_CE_COUGH.CESTDY,,,,CE_01.CL_COUGHE_EDT_CE.CESTDY
CE_01,CL_COUGHE_EDT_CE,EPOCH,Char,40,source.AR_COUGHE_EDT_CE.EPOCH,CE.PART_CE_COUGH.EPOCH,,,,CE_01.CL_COUGHE_EDT_CE.EPOCH
CE_01,CL_COUGHE_EDT_CE,TAETORD,Num,8,source.AR_COUGHE_EDT_CE.TAETORD,CE.PART_CE_COUGH.TAETORD,,,,CE_01.CL_COUGHE_EDT_CE.TAETORD
CE_01,CL_COUGHE_EDT_CE,CESCAT,Char,200,"if(upcase(source.AR_COUGHE_EDT_CE.CECAT) = ""DEVICE EVENT"") source.AR_COUGHE_EDT_CE.CECAT
else ''",CE.PART_CE_COUGH.CESCAT,,,,CE_01.CL_COUGHE_EDT_CE.CESCAT
CE_01,CL_COUGHE_EDT_CE,DOMAIN,Char,2,'CE',CE.PART_CE_COUGH.DOMAIN,,,,CE_01.CL_COUGHE_EDT_CE.DOMAIN
CE_01,CL_COUGHE_EDT_CE,MILLISEC,Char,10,source.AR_COUGHE_EDT_CE.MILLISEC,CE.PART_CE_COUGH.MILLISEC,,,,CE_01.CL_COUGHE_EDT_CE.MILLISEC
CE_01,CL_COUGHE_EDT_CE,CESPSTAT,Char,110,source.AR_COUGHE_EDT_CE.CEEVLINX,CE.PART_CE_COUGH.CESPSTAT,,,,CE_01.CL_COUGHE_EDT_CE.CESPSTAT
CE_01,CL_COUGHE_EDT_CE,CENAM,Char,200,source.AR_COUGHE_EDT_CE.CENAM,CE.PART_CE_COUGH.CENAM,,,,CE_01.CL_COUGHE_EDT_CE.CENAM
CE_01,CL_COUGHE_EDT_CE,ELEMENT,Char,150,source.AR_COUGHE_EDT_CE.ELEMENT,CE.PART_CE_COUGH.ELEMENT,,,,CE_01.CL_COUGHE_EDT_CE.ELEMENT
CE_01,CL_COUGHE_EDT_CE,ETCD,Char,8,source.AR_COUGHE_EDT_CE.ETCD,CE.PART_CE_COUGH.ETCD,,,,CE_01.CL_COUGHE_EDT_CE.ETCD
CE_01,CL_COUGHE_EDT_CE,STDYRLEP,Char,200,"lrtrim(left(put(source.AR_COUGHE_EDT_CE.STDYRLEP,""BEST16."")))",CE.PART_CE_COUGH.STDYRLEP,,,,CE_01.CL_COUGHE_EDT_CE.STDYRLEP
SE_01,TX_SE,DOMAIN,Char,200,source.SE.DOMAIN,SE.DOMAIN,,,,SE_01.TX_SE.DOMAIN
SE_01,TX_SE,ELEMENT,Char,200,source.SE.ELEMENT,SE.ELEMENT,,,,SE_01.TX_SE.ELEMENT
SE_01,TX_SE,EPENDTC,Char,200,source.SE.EPENDTC,SE.EPENDTC,,,,SE_01.TX_SE.EPENDTC
SE_01,TX_SE,EPOCH,Char,200,source.SE.EPOCH,SE.EPOCH,,,,SE_01.TX_SE.EPOCH
SE_01,TX_SE,EPSTDTC,Char,200,source.SE.EPSTDTC,SE.EPSTDTC,,,,SE_01.TX_SE.EPSTDTC
SE_01,TX_SE,ETCD,Char,200,source.SE.ETCD,SE.ETCD,,,,SE_01.TX_SE.ETCD
SE_01,TX_SE,SEENDTC,Char,200,source.SE.SEENDTC,SE.SEENDTC,,,,SE_01.TX_SE.SEENDTC
SE_01,TX_SE,SESTDTC,Char,200,source.SE.SESTDTC,SE.SESTDTC,,,,SE_01.TX_SE.SESTDTC
SE_01,TX_SE,STUDYID,Char,200,source.SE.STUDYID,SE.STUDYID,,,,SE_01.TX_SE.STUDYID
SE_01,TX_SE,USUBJID,Char,200,source.SE.USUBJID,SE.USUBJID,,,,SE_01.TX_SE.USUBJID
SE_01,TX_SE,SESEQ,Num,8,source.SE.SESEQ,SE.SESEQ,,,,SE_01.TX_SE.SESEQ
SE_01,TX_SE,TAETORD,Num,8,source.SE.TAETORD,SE.TAETORD,,,,SE_01.TX_SE.TAETORD
SE_01,TX_SE,SESTDY,Num,8,"studyday(source.AR_DM.RFSTDTC,source.SE.SESTDTC)",SE.SESTDY,,,,SE_01.TX_SE.SESTDY
SE_01,TX_SE,SEENDY,Num,8,"studyday(source.AR_DM.RFSTDTC,source.SE.SEENDTC)",SE.SEENDY,,,,SE_01.TX_SE.SEENDY
SE_01,SE_JN_DM,,,0,,,,,,SE_01.SE_JN_DM.
QS_01,CL_AUDITC_QS,STUDYID,Char,12,source.AR_AUDITC_QS.STUDYID,QS.PART_CL_AUDITC_QS.STUDYID,,,,QS_01.CL_AUDITC_QS.STUDYID
QS_01,CL_AUDITC_QS,USUBJID,Char,30,source.AR_AUDITC_QS.USUBJID,QS.PART_CL_AUDITC_QS.USUBJID,,,,QS_01.CL_AUDITC_QS.USUBJID
QS_01,CL_AUDITC_QS,VISIT,Char,60,source.AR_AUDITC_QS.VISIT,QS.PART_CL_AUDITC_QS.VISIT,,,,QS_01.CL_AUDITC_QS.VISIT
QS_01,CL_AUDITC_QS,QSSEQ,Num,8,source.AR_AUDITC_QS.QSSEQ,QS.PART_CL_AUDITC_QS.QSSEQ,,,,QS_01.CL_AUDITC_QS.QSSEQ
QS_01,CL_AUDITC_QS,QSGRPID,Char,40,source.AR_AUDITC_QS.QSGRPID,QS.PART_CL_AUDITC_QS.QSGRPID,,,,QS_01.CL_AUDITC_QS.QSGRPID
QS_01,CL_AUDITC_QS,VISITNUM,Num,8,source.AR_AUDITC_QS.VISITNUM,QS.PART_CL_AUDITC_QS.VISITNUM,,,,QS_01.CL_AUDITC_QS.VISITNUM
QS_01,CL_AUDITC_QS,ELEMENT,Char,150,source.AR_AUDITC_QS.ELEMENT,QS.PART_CL_AUDITC_QS.ELEMENT,,,,QS_01.CL_AUDITC_QS.ELEMENT
QS_01,CL_AUDITC_QS,EPOCH,Char,40,source.AR_AUDITC_QS.EPOCH,QS.PART_CL_AUDITC_QS.EPOCH,,,,QS_01.CL_AUDITC_QS.EPOCH
QS_01,CL_AUDITC_QS,ETCD,Char,8,source.AR_AUDITC_QS.ETCD,QS.PART_CL_AUDITC_QS.ETCD,,,,QS_01.CL_AUDITC_QS.ETCD
QS_01,CL_AUDITC_QS,QSBLFL,Char,1,source.AR_AUDITC_QS.QSBLFL,QS.PART_CL_AUDITC_QS.QSBLFL,,,,QS_01.CL_AUDITC_QS.QSBLFL
QS_01,CL_AUDITC_QS,QSCAT,Char,128,source.AR_AUDITC_QS.QSCAT,QS.PART_CL_AUDITC_QS.QSCAT,,,,QS_01.CL_AUDITC_QS.QSCAT
QS_01,CL_AUDITC_QS,QSDTC,Char,19,source.AR_AUDITC_QS.QSDTC,QS.PART_CL_AUDITC_QS.QSDTC,,,,QS_01.CL_AUDITC_QS.QSDTC
QS_01,CL_AUDITC_QS,QSDY,Num,8,source.AR_AUDITC_QS.QSDY,QS.PART_CL_AUDITC_QS.QSDY,,,,QS_01.CL_AUDITC_QS.QSDY
QS_01,CL_AUDITC_QS,QSEVAL,Char,200,source.AR_AUDITC_QS.QSEVAL,QS.PART_CL_AUDITC_QS.QSEVAL,,,,QS_01.CL_AUDITC_QS.QSEVAL
QS_01,CL_AUDITC_QS,QSORRES,Char,200,source.AR_AUDITC_QS.QSORRES,QS.PART_CL_AUDITC_QS.QSORRES,,,,QS_01.CL_AUDITC_QS.QSORRES
QS_01,CL_AUDITC_QS,QSSPID,Char,20,source.AR_AUDITC_QS.QSSPID,QS.PART_CL_AUDITC_QS.QSSPID,,,,QS_01.CL_AUDITC_QS.QSSPID
QS_01,CL_AUDITC_QS,QSSTRESC,Char,200,source.AR_AUDITC_QS.QSSTRESC,QS.PART_CL_AUDITC_QS.QSSTRESC,,,,QS_01.CL_AUDITC_QS.QSSTRESC
QS_01,CL_AUDITC_QS,QSTEST,Char,60,"if (source.AR_AUDITC_QS.QSTEST = ""ADTC02-Alcohol Drinks on a Typical Day"") ""ADTC01-Alcohol Drinks on a Typical Day"" 
else if (source.AR_AUDITC_QS.QSTEST = ""ADTC03-Six or More Drinks One Occasion"") ""ADTC01-Six or More Drinks One Occasion"" 
else  source.AR_AUDITC_QS.QSTEST",QS.PART_CL_AUDITC_QS.QSTEST,,,,QS_01.CL_AUDITC_QS.QSTEST
QS_01,CL_AUDITC_QS,QSTESTCD,Char,8,source.AR_AUDITC_QS.QSTESTCD,QS.PART_CL_AUDITC_QS.QSTESTCD,,,,QS_01.CL_AUDITC_QS.QSTESTCD
QS_01,CL_AUDITC_QS,TAETORD,Num,8,source.AR_AUDITC_QS.TAETORD,QS.PART_CL_AUDITC_QS.TAETORD,,,,QS_01.CL_AUDITC_QS.TAETORD
QS_01,CL_AUDITC_QS,VISITDY,Num,8,source.AR_AUDITC_QS.VISITDY,QS.PART_CL_AUDITC_QS.VISITDY,,,,QS_01.CL_AUDITC_QS.VISITDY
QS_01,CL_AUDITC_QS,DOMAIN,Char,2,'QS',QS.PART_CL_AUDITC_QS.DOMAIN,,,,QS_01.CL_AUDITC_QS.DOMAIN
QS_01,MER_QS,,,0,,,,,,QS_01.MER_QS.
IS_01,CL_IMUNG_EDT_LB_IS,STUDYID,Char,12,source.AR_IMUNG_EDT_LB.STUDYID,IS.PART_CL_IMUNG_EDT.STUDYID,,,,IS_01.CL_IMUNG_EDT_LB_IS.STUDYID
IS_01,CL_IMUNG_EDT_LB_IS,USUBJID,Char,30,source.AR_IMUNG_EDT_LB.USUBJID,IS.PART_CL_IMUNG_EDT.USUBJID,,,,IS_01.CL_IMUNG_EDT_LB_IS.USUBJID
IS_01,CL_IMUNG_EDT_LB_IS,VISIT,Char,60,source.AR_IMUNG_EDT_LB.VISIT,IS.PART_CL_IMUNG_EDT.VISIT,,,,IS_01.CL_IMUNG_EDT_LB_IS.VISIT
IS_01,CL_IMUNG_EDT_LB_IS,LBSEQ,Num,8,source.AR_IMUNG_EDT_LB.LBSEQ,IS.PART_CL_IMUNG_EDT.ISSEQ,,,,IS_01.CL_IMUNG_EDT_LB_IS.LBSEQ
IS_01,CL_IMUNG_EDT_LB_IS,LBREFID,Char,30,source.AR_IMUNG_EDT_LB.LBREFID,IS.PART_CL_IMUNG_EDT.ISREFID,,,,IS_01.CL_IMUNG_EDT_LB_IS.LBREFID
IS_01,CL_IMUNG_EDT_LB_IS,LBSPID,Char,20,source.AR_IMUNG_EDT_LB.LBSPID,IS.PART_CL_IMUNG_EDT.ISSPID,,,,IS_01.CL_IMUNG_EDT_LB_IS.LBSPID
IS_01,CL_IMUNG_EDT_LB_IS,LBTESTCD,Char,8,source.AR_IMUNG_EDT_LB.LBTESTCD,IS.PART_CL_IMUNG_EDT.ISTESTCD,,,,IS_01.CL_IMUNG_EDT_LB_IS.LBTESTCD
IS_01,CL_IMUNG_EDT_LB_IS,VISITNUM,Num,8,source.AR_IMUNG_EDT_LB.VISITNUM,IS.PART_CL_IMUNG_EDT.VISITNUM,,,,IS_01.CL_IMUNG_EDT_LB_IS.VISITNUM
IS_01,CL_IMUNG_EDT_LB_IS,DILNFCTR,Char,200,source.AR_IMUNG_EDT_LB.DILNFCTR,IS.PART_CL_IMUNG_EDT.DILNFCTR,,,,IS_01.CL_IMUNG_EDT_LB_IS.DILNFCTR
IS_01,CL_IMUNG_EDT_LB_IS,ELEMENT,Char,150,source.AR_IMUNG_EDT_LB.ELEMENT,IS.PART_CL_IMUNG_EDT.ELEMENT,,,,IS_01.CL_IMUNG_EDT_LB_IS.ELEMENT
IS_01,CL_IMUNG_EDT_LB_IS,EPOCH,Char,40,source.AR_IMUNG_EDT_LB.EPOCH,IS.PART_CL_IMUNG_EDT.EPOCH,,,,IS_01.CL_IMUNG_EDT_LB_IS.EPOCH
IS_01,CL_IMUNG_EDT_LB_IS,ETCD,Char,8,source.AR_IMUNG_EDT_LB.ETCD,IS.PART_CL_IMUNG_EDT.ETCD,,,,IS_01.CL_IMUNG_EDT_LB_IS.ETCD
IS_01,CL_IMUNG_EDT_LB_IS,LBBLFL,Char,1,source.AR_IMUNG_EDT_LB.LBBLFL,IS.PART_CL_IMUNG_EDT.ISBLFL,,,,IS_01.CL_IMUNG_EDT_LB_IS.LBBLFL
IS_01,CL_IMUNG_EDT_LB_IS,LBCAT,Char,80,source.AR_IMUNG_EDT_LB.LBCAT,IS.PART_CL_IMUNG_EDT.ISCAT,,,,IS_01.CL_IMUNG_EDT_LB_IS.LBCAT
IS_01,CL_IMUNG_EDT_LB_IS,LBDTC,Char,19,source.AR_IMUNG_EDT_LB.LBDTC,IS.PART_CL_IMUNG_EDT.ISDTC,,,,IS_01.CL_IMUNG_EDT_LB_IS.LBDTC
IS_01,CL_IMUNG_EDT_LB_IS,LBDY,Num,8,source.AR_IMUNG_EDT_LB.LBDY,IS.PART_CL_IMUNG_EDT.ISDY,,,,IS_01.CL_IMUNG_EDT_LB_IS.LBDY
IS_01,CL_IMUNG_EDT_LB_IS,LBGRPID,Char,40,source.AR_IMUNG_EDT_LB.LBGRPID,IS.PART_CL_IMUNG_EDT.ISGRPID,,,,IS_01.CL_IMUNG_EDT_LB_IS.LBGRPID
IS_01,CL_IMUNG_EDT_LB_IS,LBLLOQ,Num,8,source.AR_IMUNG_EDT_LB.LBLLOQ,IS.PART_CL_IMUNG_EDT.ISLLOQ,,,,IS_01.CL_IMUNG_EDT_LB_IS.LBLLOQ
IS_01,CL_IMUNG_EDT_LB_IS,LBLOC,Char,80,source.AR_IMUNG_EDT_LB.LBLOC,IS.PART_CL_IMUNG_EDT.ISLOC,,,,IS_01.CL_IMUNG_EDT_LB_IS.LBLOC
IS_01,CL_IMUNG_EDT_LB_IS,LBMETHOD,Char,200,source.AR_IMUNG_EDT_LB.LBMETHOD,IS.PART_CL_IMUNG_EDT.ISMETHOD,,,,IS_01.CL_IMUNG_EDT_LB_IS.LBMETHOD
IS_01,CL_IMUNG_EDT_LB_IS,LBNAM,Char,200,source.AR_IMUNG_EDT_LB.LBNAM,IS.PART_CL_IMUNG_EDT.ISNAM,,,,IS_01.CL_IMUNG_EDT_LB_IS.LBNAM
IS_01,CL_IMUNG_EDT_LB_IS,LBORRES,Char,200,source.AR_IMUNG_EDT_LB.LBORRES,IS.PART_CL_IMUNG_EDT.ISORRES,,,,IS_01.CL_IMUNG_EDT_LB_IS.LBORRES
IS_01,CL_IMUNG_EDT_LB_IS,LBORRESU,Char,25,"if(source.AR_IMUNG_EDT_LB.LBORRESU = ""Index"" ) ""RATIO""
else if (source.AR_IMUNG_EDT_LB.LBORRESU = ""OI"" ) ""OI50""
else source.AR_IMUNG_EDT_LB.LBORRESU",IS.PART_CL_IMUNG_EDT.ISORRESU,,,,IS_01.CL_IMUNG_EDT_LB_IS.LBORRESU
IS_01,CL_IMUNG_EDT_LB_IS,LBREASND,Char,200,source.AR_IMUNG_EDT_LB.LBREASND,IS.PART_CL_IMUNG_EDT.ISREASND,,,,IS_01.CL_IMUNG_EDT_LB_IS.LBREASND
IS_01,CL_IMUNG_EDT_LB_IS,LBSCAT,Char,80,"if(source.AR_IMUNG_EDT_LB.LBORRESU = ""Index"" ) ""ANTIBODY INDEX""
else source.AR_IMUNG_EDT_LB.LBSCAT",IS.PART_CL_IMUNG_EDT.ISSCAT,,,,IS_01.CL_IMUNG_EDT_LB_IS.LBSCAT
IS_01,CL_IMUNG_EDT_LB_IS,SPECCOND,Char,200,source.AR_IMUNG_EDT_LB.LBSPCCND,IS.PART_CL_IMUNG_EDT.SPECCOND,,,,IS_01.CL_IMUNG_EDT_LB_IS.SPECCOND
IS_01,CL_IMUNG_EDT_LB_IS,LBSPEC,Char,40,source.AR_IMUNG_EDT_LB.LBSPEC,IS.PART_CL_IMUNG_EDT.ISSPEC,,,,IS_01.CL_IMUNG_EDT_LB_IS.LBSPEC
IS_01,CL_IMUNG_EDT_LB_IS,LBSTAT,Char,8,source.AR_IMUNG_EDT_LB.LBSTAT,IS.PART_CL_IMUNG_EDT.ISSTAT,,,,IS_01.CL_IMUNG_EDT_LB_IS.LBSTAT
IS_01,CL_IMUNG_EDT_LB_IS,LBSTRESC,Char,80,source.AR_IMUNG_EDT_LB.LBSTRESC,IS.PART_CL_IMUNG_EDT.ISSTRESC,,,,IS_01.CL_IMUNG_EDT_LB_IS.LBSTRESC
IS_01,CL_IMUNG_EDT_LB_IS,LBSTRESN,Num,8,source.AR_IMUNG_EDT_LB.LBSTRESN,IS.PART_CL_IMUNG_EDT.ISSTRESN,,,,IS_01.CL_IMUNG_EDT_LB_IS.LBSTRESN
IS_01,CL_IMUNG_EDT_LB_IS,LBSTRESU,Char,35,"if(source.AR_IMUNG_EDT_LB.LBORRESU = ""Index"" ) ""RATIO""
else if (source.AR_IMUNG_EDT_LB.LBORRESU = ""OI"" ) ""OI50""
else source.AR_IMUNG_EDT_LB.LBSTRESU",IS.PART_CL_IMUNG_EDT.ISSTRESU,,,,IS_01.CL_IMUNG_EDT_LB_IS.LBSTRESU
IS_01,CL_IMUNG_EDT_LB_IS,LBTEST,Char,200,source.AR_IMUNG_EDT_LB.LBTEST,IS.PART_CL_IMUNG_EDT.ISTEST,,,,IS_01.CL_IMUNG_EDT_LB_IS.LBTEST
IS_01,CL_IMUNG_EDT_LB_IS,LBTPT,Char,80,source.AR_IMUNG_EDT_LB.LBTPT,IS.PART_CL_IMUNG_EDT.ISTPT,,,,IS_01.CL_IMUNG_EDT_LB_IS.LBTPT
IS_01,CL_IMUNG_EDT_LB_IS,LBTPTNUM,Num,8,source.AR_IMUNG_EDT_LB.LBTPTNUM,IS.PART_CL_IMUNG_EDT.ISTPTNUM,,,,IS_01.CL_IMUNG_EDT_LB_IS.LBTPTNUM
IS_01,CL_IMUNG_EDT_LB_IS,NONPARL,Char,1,source.AR_IMUNG_EDT_LB.NONPARL,IS.PART_CL_IMUNG_EDT.NONPARL,,,,IS_01.CL_IMUNG_EDT_LB_IS.NONPARL
IS_01,CL_IMUNG_EDT_LB_IS,TAETORD,Num,8,source.AR_IMUNG_EDT_LB.TAETORD,IS.PART_CL_IMUNG_EDT.TAETORD,,,,IS_01.CL_IMUNG_EDT_LB_IS.TAETORD
IS_01,CL_IMUNG_EDT_LB_IS,TSTDTL,Char,200,source.AR_IMUNG_EDT_LB.TSTDTL,IS.PART_CL_IMUNG_EDT.ISTSTDTL,,,,IS_01.CL_IMUNG_EDT_LB_IS.TSTDTL
IS_01,CL_IMUNG_EDT_LB_IS,VISITDY,Num,8,source.AR_IMUNG_EDT_LB.VISITDY,IS.PART_CL_IMUNG_EDT.VISITDY,,,,IS_01.CL_IMUNG_EDT_LB_IS.VISITDY
IS_01,CL_IMUNG_EDT_LB_IS,DOMAIN,Char,2,'IS',IS.PART_CL_IMUNG_EDT.DOMAIN,,,,IS_01.CL_IMUNG_EDT_LB_IS.DOMAIN
IS_01,CL_IMUNG_EDT_LB_IS,ASSYAG,Char,200,source.AR_IMUNG_EDT_LB.ASSYAG,IS.PART_CL_IMUNG_EDT.ASSYAG,,,,IS_01.CL_IMUNG_EDT_LB_IS.ASSYAG
IS_01,CL_IMUNG_EDT_LB_IS,LBNHOID,Char,200,source.AR_IMUNG_EDT_LB.LBNHOID,IS.PART_CL_IMUNG_EDT.NHOID,,,,IS_01.CL_IMUNG_EDT_LB_IS.LBNHOID
IS_01,CL_IMUNG_EDT_LB_IS,STDYRLEP,Char,200,"lrtrim(left(put(source.AR_IMUNG_EDT_LB.STDYRLEP,""BEST16."")))",IS.PART_CL_IMUNG_EDT.STDYRLEP,,,,IS_01.CL_IMUNG_EDT_LB_IS.STDYRLEP
SC_01,CL_SR_SC,SCSTRESN,Num,8,"If(substr(source.AR_SR_SC.SCTESTCD,1,6) == 'CMPIDA') NULL
else  source.AR_SR_SC.SCSTRESN",SC.PART_CL_SR_SC.SCSTRESN,,,,SC_01.CL_SR_SC.SCSTRESN
SC_01,CL_SR_SC,SCTEST,Char,60,source.AR_SR_SC.SCTEST,SC.PART_CL_SR_SC.SCTEST,,,,SC_01.CL_SR_SC.SCTEST
SC_01,CL_SR_SC,SCTESTCD,Char,8,source.AR_SR_SC.SCTESTCD,SC.PART_CL_SR_SC.SCTESTCD,,,,SC_01.CL_SR_SC.SCTESTCD
SC_01,CL_SR_SC,TAETORD,Num,8,source.AR_SR_SC.TAETORD,SC.PART_CL_SR_SC.TAETORD,,,,SC_01.CL_SR_SC.TAETORD
SC_01,CL_SR_SC,VISITDY,Num,8,source.AR_SR_SC.VISITDY,SC.PART_CL_SR_SC.VISITDY,,,,SC_01.CL_SR_SC.VISITDY
SC_01,CL_SR_SC,SCORRESU,Char,25,source.AR_SR_SC.SCORRESU,SC.PART_CL_SR_SC.SCORRESU,,,,SC_01.CL_SR_SC.SCORRESU
SC_01,CL_SR_SC,SCSTRESU,Char,25,source.AR_SR_SC.SCSTRESU,SC.PART_CL_SR_SC.SCSTRESU,,,,SC_01.CL_SR_SC.SCSTRESU
SC_01,CL_SR_SC,DOMAIN,Char,2,'SC',SC.PART_CL_SR_SC.DOMAIN,,,,SC_01.CL_SR_SC.DOMAIN
SC_01,CL_SR_SC,STUDYID,Char,12,source.AR_SR_SC.STUDYID,SC.PART_CL_SR_SC.STUDYID,,,,SC_01.CL_SR_SC.STUDYID
SC_01,CL_SR_SC,USUBJID,Char,30,source.AR_SR_SC.USUBJID,SC.PART_CL_SR_SC.USUBJID,,,,SC_01.CL_SR_SC.USUBJID
SC_01,CL_SR_SC,VISIT,Char,60,source.AR_SR_SC.VISIT,SC.PART_CL_SR_SC.VISIT,,,,SC_01.CL_SR_SC.VISIT
SC_01,CL_SR_SC,SCSEQ,Num,8,source.AR_SR_SC.SCSEQ,SC.PART_CL_SR_SC.SCSEQ,,,,SC_01.CL_SR_SC.SCSEQ
SC_01,CL_SR_SC,SCGRPID,Char,40,source.AR_SR_SC.SCGRPID,SC.PART_CL_SR_SC.SCGRPID,,,,SC_01.CL_SR_SC.SCGRPID
SC_01,CL_SR_SC,VISITNUM,Num,8,source.AR_SR_SC.VISITNUM,SC.PART_CL_SR_SC.VISITNUM,,,,SC_01.CL_SR_SC.VISITNUM
SC_01,CL_SR_SC,ELEMENT,Char,150,source.AR_SR_SC.ELEMENT,SC.PART_CL_SR_SC.ELEMENT,,,,SC_01.CL_SR_SC.ELEMENT
SC_01,CL_SR_SC,EPOCH,Char,40,source.AR_SR_SC.EPOCH,SC.PART_CL_SR_SC.EPOCH,,,,SC_01.CL_SR_SC.EPOCH
SC_01,CL_SR_SC,ETCD,Char,8,source.AR_SR_SC.ETCD,SC.PART_CL_SR_SC.ETCD,,,,SC_01.CL_SR_SC.ETCD
SC_01,CL_SR_SC,SCCAT,Char,80,source.AR_SR_SC.SCCAT,SC.PART_CL_SR_SC.SCCAT,,,,SC_01.CL_SR_SC.SCCAT
SC_01,CL_SR_SC,SCDTC,Char,19,source.AR_SR_SC.SCDTC,SC.PART_CL_SR_SC.SCDTC,,,,SC_01.CL_SR_SC.SCDTC
SC_01,CL_SR_SC,SCDY,Num,8,source.AR_SR_SC.SCDY,SC.PART_CL_SR_SC.SCDY,,,,SC_01.CL_SR_SC.SCDY
SC_01,CL_SR_SC,SCORRES,Char,200,source.AR_SR_SC.SCORRES,SC.PART_CL_SR_SC.SCORRES,,,,SC_01.CL_SR_SC.SCORRES
SC_01,CL_SR_SC,SCSTRESC,Char,200,source.AR_SR_SC.SCSTRESC,SC.PART_CL_SR_SC.SCSTRESC,,,,SC_01.CL_SR_SC.SCSTRESC
SC_01,CL_SR1_SC,STUDYID,Char,12,source.AR_SR1_SC.STUDYID,SC.PART_CL_SR1_SC.STUDYID,,,,SC_01.CL_SR1_SC.STUDYID
SC_01,CL_SR1_SC,USUBJID,Char,30,source.AR_SR1_SC.USUBJID,SC.PART_CL_SR1_SC.USUBJID,,,,SC_01.CL_SR1_SC.USUBJID
SC_01,CL_SR1_SC,VISIT,Char,60,source.AR_SR1_SC.VISIT,SC.PART_CL_SR1_SC.VISIT,,,,SC_01.CL_SR1_SC.VISIT
SC_01,CL_SR1_SC,SCSEQ,Num,8,source.AR_SR1_SC.SCSEQ,SC.PART_CL_SR1_SC.SCSEQ,,,,SC_01.CL_SR1_SC.SCSEQ
SC_01,CL_SR1_SC,SCGRPID,Char,40,source.AR_SR1_SC.SCGRPID,SC.PART_CL_SR1_SC.SCGRPID,,,,SC_01.CL_SR1_SC.SCGRPID
SC_01,CL_SR1_SC,SCSPID,Char,20,source.AR_SR1_SC.SCSPID,SC.PART_CL_SR1_SC.SCSPID,,,,SC_01.CL_SR1_SC.SCSPID
SC_01,CL_SR1_SC,VISITNUM,Num,8,source.AR_SR1_SC.VISITNUM,SC.PART_CL_SR1_SC.VISITNUM,,,,SC_01.CL_SR1_SC.VISITNUM
SC_01,CL_SR1_SC,ELEMENT,Char,150,source.AR_SR1_SC.ELEMENT,SC.PART_CL_SR1_SC.ELEMENT,,,,SC_01.CL_SR1_SC.ELEMENT
SC_01,CL_SR1_SC,EPOCH,Char,40,source.AR_SR1_SC.EPOCH,SC.PART_CL_SR1_SC.EPOCH,,,,SC_01.CL_SR1_SC.EPOCH
SC_01,CL_SR1_SC,ETCD,Char,8,source.AR_SR1_SC.ETCD,SC.PART_CL_SR1_SC.ETCD,,,,SC_01.CL_SR1_SC.ETCD
SC_01,CL_SR1_SC,SCCAT,Char,80,source.AR_SR1_SC.SCCAT,SC.PART_CL_SR1_SC.SCCAT,,,,SC_01.CL_SR1_SC.SCCAT
SC_01,CL_SR1_SC,SCDTC,Char,19,source.AR_SR1_SC.SCDTC,SC.PART_CL_SR1_SC.SCDTC,,,,SC_01.CL_SR1_SC.SCDTC
SC_01,CL_SR1_SC,SCDY,Num,8,source.AR_SR1_SC.SCDY,SC.PART_CL_SR1_SC.SCDY,,,,SC_01.CL_SR1_SC.SCDY
SC_01,CL_SR1_SC,SCORRES,Char,200,source.AR_SR1_SC.SCORRES,SC.PART_CL_SR1_SC.SCORRES,,,,SC_01.CL_SR1_SC.SCORRES
SC_01,CL_SR1_SC,SCSTRESC,Char,200,source.AR_SR1_SC.SCSTRESC,SC.PART_CL_SR1_SC.SCSTRESC,,,,SC_01.CL_SR1_SC.SCSTRESC
SC_01,CL_SR1_SC,SCTEST,Char,60,source.AR_SR1_SC.SCTEST,SC.PART_CL_SR1_SC.SCTEST,,,,SC_01.CL_SR1_SC.SCTEST
SC_01,CL_SR1_SC,SCTESTCD,Char,8,source.AR_SR1_SC.SCTESTCD,SC.PART_CL_SR1_SC.SCTESTCD,,,,SC_01.CL_SR1_SC.SCTESTCD
SC_01,CL_SR1_SC,TAETORD,Num,8,source.AR_SR1_SC.TAETORD,SC.PART_CL_SR1_SC.TAETORD,,,,SC_01.CL_SR1_SC.TAETORD
SC_01,CL_SR1_SC,VISITDY,Num,8,source.AR_SR1_SC.VISITDY,SC.PART_CL_SR1_SC.VISITDY,,,,SC_01.CL_SR1_SC.VISITDY
SC_01,CL_SR1_SC,DOMAIN,Char,2,'SC',SC.PART_CL_SR1_SC.DOMAIN,,,,SC_01.CL_SR1_SC.DOMAIN
SC_01,CL_SR1_SC,SCSTRESN,Num,8,"If(substr(source.AR_SR1_SC.SCTESTCD,1,6) == 'CMPIDA') ''
else  source.AR_SR_SC.SCSTRESC",SC.PART_CL_SR1_SC.SCSTRESN,,,,SC_01.CL_SR1_SC.SCSTRESN
SC_01,MER_SC,,,0,,,,,,SC_01.MER_SC.
SC_01,CL_PEDI1_SC,STUDYID,Char,12,source.AR_PEDI1_SC.STUDYID,SC.PART_CL_PEDI1_SC.STUDYID,,,,SC_01.CL_PEDI1_SC.STUDYID
SC_01,CL_PEDI1_SC,USUBJID,Char,30,source.AR_PEDI1_SC.USUBJID,SC.PART_CL_PEDI1_SC.USUBJID,,,,SC_01.CL_PEDI1_SC.USUBJID
SC_01,CL_PEDI1_SC,VISIT,Char,60,source.AR_PEDI1_SC.VISIT,SC.PART_CL_PEDI1_SC.VISIT,,,,SC_01.CL_PEDI1_SC.VISIT
SC_01,CL_PEDI1_SC,SCSEQ,Num,8,source.AR_PEDI1_SC.SCSEQ,SC.PART_CL_PEDI1_SC.SCSEQ,,,,SC_01.CL_PEDI1_SC.SCSEQ
SC_01,CL_PEDI1_SC,SCGRPID,Char,40,source.AR_PEDI1_SC.SCGRPID,SC.PART_CL_PEDI1_SC.SCGRPID,,,,SC_01.CL_PEDI1_SC.SCGRPID
SC_01,CL_PEDI1_SC,VISITNUM,Num,8,source.AR_PEDI1_SC.VISITNUM,SC.PART_CL_PEDI1_SC.VISITNUM,,,,SC_01.CL_PEDI1_SC.VISITNUM
SC_01,CL_PEDI1_SC,ELEMENT,Char,150,source.AR_PEDI1_SC.ELEMENT,SC.PART_CL_PEDI1_SC.ELEMENT,,,,SC_01.CL_PEDI1_SC.ELEMENT
SC_01,CL_PEDI1_SC,EPOCH,Char,40,source.AR_PEDI1_SC.EPOCH,SC.PART_CL_PEDI1_SC.EPOCH,,,,SC_01.CL_PEDI1_SC.EPOCH
SC_01,CL_PEDI1_SC,ETCD,Char,8,source.AR_PEDI1_SC.ETCD,SC.PART_CL_PEDI1_SC.ETCD,,,,SC_01.CL_PEDI1_SC.ETCD
SC_01,CL_PEDI1_SC,SCDTC,Char,19,source.AR_PEDI1_SC.SCDTC,SC.PART_CL_PEDI1_SC.SCDTC,,,,SC_01.CL_PEDI1_SC.SCDTC
SC_01,CL_PEDI1_SC,SCDY,Num,8,source.AR_PEDI1_SC.SCDY,SC.PART_CL_PEDI1_SC.SCDY,,,,SC_01.CL_PEDI1_SC.SCDY
SC_01,CL_PEDI1_SC,SCORRES,Char,200,source.AR_PEDI1_SC.SCORRES,SC.PART_CL_PEDI1_SC.SCORRES,,,,SC_01.CL_PEDI1_SC.SCORRES
SC_01,CL_PEDI1_SC,SCORRESU,Char,25,source.AR_PEDI1_SC.SCORRESU,SC.PART_CL_PEDI1_SC.SCORRESU,,,,SC_01.CL_PEDI1_SC.SCORRESU
SC_01,CL_PEDI1_SC,SCSTRESC,Char,200,source.AR_PEDI1_SC.SCSTRESC,SC.PART_CL_PEDI1_SC.SCSTRESC,,,,SC_01.CL_PEDI1_SC.SCSTRESC
SC_01,CL_PEDI1_SC,SCSTRESN,Num,8,source.AR_PEDI1_SC.SCSTRESN,SC.PART_CL_PEDI1_SC.SCSTRESN,,,,SC_01.CL_PEDI1_SC.SCSTRESN
SC_01,CL_PEDI1_SC,SCSTRESU,Char,25,source.AR_PEDI1_SC.SCSTRESU,SC.PART_CL_PEDI1_SC.SCSTRESU,,,,SC_01.CL_PEDI1_SC.SCSTRESU
SC_01,CL_PEDI1_SC,SCTEST,Char,60,"if(source.AR_PEDI1_SC.SCTEST = ""Estimated Gestational Age"") ""Gestational Age at Birth""
else source.AR_PEDI1_SC.SCTEST",SC.PART_CL_PEDI1_SC.SCTEST,,,,SC_01.CL_PEDI1_SC.SCTEST
SC_01,CL_PEDI1_SC,SCTESTCD,Char,8,'GSTABRTH',SC.PART_CL_PEDI1_SC.SCTESTCD,,,,SC_01.CL_PEDI1_SC.SCTESTCD
SC_01,CL_PEDI1_SC,TAETORD,Num,8,source.AR_PEDI1_SC.TAETORD,SC.PART_CL_PEDI1_SC.TAETORD,,,,SC_01.CL_PEDI1_SC.TAETORD
SC_01,CL_PEDI1_SC,VISITDY,Num,8,source.AR_PEDI1_SC.VISITDY,SC.PART_CL_PEDI1_SC.VISITDY,,,,SC_01.CL_PEDI1_SC.VISITDY
SC_01,CL_PEDI1_SC,SCCAT,Char,200,'PEDIATRIC SUPPLEMENTAL INFORMATION',SC.PART_CL_PEDI1_SC.SCCAT,,,,SC_01.CL_PEDI1_SC.SCCAT
SC_01,CL_PEDI1_SC,DOMAIN,Char,2,'SC',SC.PART_CL_PEDI1_SC.DOMAIN,,,,SC_01.CL_PEDI1_SC.DOMAIN
SU_01,CL_SU,STUDYID,Char,12,source.AR_SU.STUDYID,SU.STUDYID,,,,SU_01.CL_SU.STUDYID
SU_01,CL_SU,USUBJID,Char,30,source.AR_SU.USUBJID,SU.USUBJID,,,,SU_01.CL_SU.USUBJID
SU_01,CL_SU,VISIT,Char,60,source.AR_SU.VISIT,SU.VISIT,,,,SU_01.CL_SU.VISIT
SU_01,CL_SU,SUSEQ,Num,8,source.AR_SU.SUSEQ,SU.SUSEQ,,,,SU_01.CL_SU.SUSEQ
SU_01,CL_SU,SUGRPID,Char,40,source.AR_SU.SUGRPID,SU.SUGRPID,,,,SU_01.CL_SU.SUGRPID
SU_01,CL_SU,VISITNUM,Num,8,source.AR_SU.VISITNUM,SU.VISITNUM,,,,SU_01.CL_SU.VISITNUM
SU_01,CL_SU,ELEMENT,Char,150,source.AR_SU.ELEMENT,SU.ELEMENT,,,,SU_01.CL_SU.ELEMENT
SU_01,CL_SU,EPOCH,Char,40,source.AR_SU.EPOCH,SU.EPOCH,,,,SU_01.CL_SU.EPOCH
SU_01,CL_SU,ETCD,Char,8,source.AR_SU.ETCD,SU.ETCD,,,,SU_01.CL_SU.ETCD
SU_01,CL_SU,SUCAT,Char,80,"If (source.AR_SU.SUTRT = 'ALCOHOL') 'ALCOHOL USE'
else If (source.AR_SU.SUTRT = 'CAFFINE')'CAFFINE USE'
else If (source.AR_SU.SUTRT ='TOBACCO') 'TOBACCO USE'
else if (source.AR_SU.SUTRT ='OTHER TOBACCO') 'OTHER TOBACCO USE'
else ''",SU.SUCAT,,,,SU_01.CL_SU.SUCAT
SU_01,CL_SU,SUDECOD,Char,20,source.AR_SU.SUDECOD,SU.SUDECOD,,,,SU_01.CL_SU.SUDECOD
SU_01,CL_SU,SUDOSE,Num,8,"if (source.AR_SU.SUTRT != 'CIGARETTE') source.AR_SU.SUDOSE
else source.AR_SU.SUDLYCIG",SU.SUDOSE,,,,SU_01.CL_SU.SUDOSE
SU_01,CL_SU,SUDOSFRQ,Char,20,"if (source.AR_SU.SUTRT != 'CIGARETTE') source.AR_SU.SUDOSFRQ
else if( source.AR_SU.SUDLYCIG != null) 'QD'
else ''",SU.SUDOSFRQ,,,,SU_01.CL_SU.SUDOSFRQ
SU_01,CL_SU,SUDOSU,Char,30,"if (source.AR_SU.SUTRT != 'CIGARETTE') source.AR_SU.SUDOSU
else if( source.AR_SU.SUDLYCIG != null) ""CIGARETTE"" else ''",SU.SUDOSU,,,,SU_01.CL_SU.SUDOSU
SU_01,CL_SU,SUDTC,Char,19,source.AR_SU.SUDTC,SU.SUDTC,,,,SU_01.CL_SU.SUDTC
SU_01,CL_SU,SUDY,Num,8,source.AR_SU.SUDY,SU.SUDY,,,,SU_01.CL_SU.SUDY
SU_01,CL_SU,SUENDTC,Char,19,source.AR_SU.SUENDTC,SU.SUENDTC,,,,SU_01.CL_SU.SUENDTC
SU_01,CL_SU,SUENDY,Num,8,source.AR_SU.SUENDY,SU.SUENDY,,,,SU_01.CL_SU.SUENDY
SU_01,CL_SU,SUOCCUR,Char,20,source.AR_SU.SUOCCUR,SU.SUOCCUR,,,,SU_01.CL_SU.SUOCCUR
SU_01,CL_SU,SUSTDTC,Char,19,source.AR_SU.SUSTDTC,SU.SUSTDTC,,,,SU_01.CL_SU.SUSTDTC
SU_01,CL_SU,SUSTDY,Num,8,source.AR_SU.SUSTDY,SU.SUSTDY,,,,SU_01.CL_SU.SUSTDY
SU_01,CL_SU,SUTPT,Char,80,source.AR_SU.SUTPT,SU.SUTPT,,,,SU_01.CL_SU.SUTPT
SU_01,CL_SU,SUTPTNUM,Num,8,source.AR_SU.SUTPTNUM,SU.SUTPTNUM,,,,SU_01.CL_SU.SUTPTNUM
SU_01,CL_SU,SUTRT,Char,200,source.AR_SU.SUTRT,SU.SUTRT,,,,SU_01.CL_SU.SUTRT
SU_01,CL_SU,TAETORD,Num,8,source.AR_SU.TAETORD,SU.TAETORD,,,,SU_01.CL_SU.TAETORD
SU_01,CL_SU,SUPRESP,Char,3,'Y',SU.SUPRESP,,,,SU_01.CL_SU.SUPRESP
SU_01,CL_SU,SUDUR,Char,200,"if (source.AR_SU.NUMYRSMK != null)
compress(concat('P',lrtrim(left(put(source.AR_SU.NUMYRSMK,""BEST16.""))),'Y'))
else ''",SU.SUDUR,,,,SU_01.CL_SU.SUDUR
SU_01,CL_SU,SUNUPKYR,Char,200,"if (source.AR_SU.SUTRT = 'CIGARETTE') lrtrim(left(put(source.AR_SU.SUDOSE,""BEST16."")))",SU.SUNUPKYR,,,,SU_01.CL_SU.SUNUPKYR
SU_01,CL_SU,DOMAIN,Char,2,'SU',SU.DOMAIN,,,,SU_01.CL_SU.DOMAIN
SU_01,CL_SU,SUENRTPT,Char,200,"if(source.AR_SU.SUENRF ='DURING/AFTER') 'ONGOING'
else source.AR_SU.SUENRF",SU.SUENRTPT,,,,SU_01.CL_SU.SUENRTPT
SU_01,CL_SU,SUENTPT,Char,200,"if(source.AR_SU.SUENRF != '') source.AR_SU.SUDTC
else ''",SU.SUENTPT,,,,SU_01.CL_SU.SUENTPT
SU_01,CL_SU,SUSTRTPT,Char,200,source.AR_SU.SUSTRF,SU.SUSTRTPT,,,,SU_01.CL_SU.SUSTRTPT
SU_01,CL_SU,SUSTTPT,Char,200,"if(source.AR_SU.SUSTRF != '') source.AR_SU.SUDTC
else ''",SU.SUSTTPT,,,,SU_01.CL_SU.SUSTTPT
VS_01,CL_VS02_VS,STUDYID,Char,12,source.AR_VS02_VS.STUDYID,VS.PART_CL_VS02_VS.STUDYID,,,,VS_01.CL_VS02_VS.STUDYID
VS_01,CL_VS02_VS,USUBJID,Char,30,source.AR_VS02_VS.USUBJID,VS.PART_CL_VS02_VS.USUBJID,,,,VS_01.CL_VS02_VS.USUBJID
VS_01,CL_VS02_VS,VISIT,Char,60,source.AR_VS02_VS.VISIT,VS.PART_CL_VS02_VS.VISIT,,,,VS_01.CL_VS02_VS.VISIT
VS_01,CL_VS02_VS,VSSEQ,Num,8,source.AR_VS02_VS.VSSEQ,VS.PART_CL_VS02_VS.VSSEQ,,,,VS_01.CL_VS02_VS.VSSEQ
VS_01,CL_VS02_VS,VISITNUM,Num,8,source.AR_VS02_VS.VISITNUM,VS.PART_CL_VS02_VS.VISITNUM,,,,VS_01.CL_VS02_VS.VISITNUM
VS_01,CL_VS02_VS,VSGRPID,Char,40,source.AR_VS02_VS.VSGRPID,VS.PART_CL_VS02_VS.VSGRPID,,,,VS_01.CL_VS02_VS.VSGRPID
VS_01,CL_VS02_VS,VSSPID,Char,20,source.AR_VS02_VS.VSSPID,VS.PART_CL_VS02_VS.VSSPID,,,,VS_01.CL_VS02_VS.VSSPID
VS_01,CL_VS02_VS,ELEMENT,Char,150,source.AR_VS02_VS.ELEMENT,VS.PART_CL_VS02_VS.ELEMENT,,,,VS_01.CL_VS02_VS.ELEMENT
VS_01,CL_VS02_VS,EPOCH,Char,40,source.AR_VS02_VS.EPOCH,VS.PART_CL_VS02_VS.EPOCH,,,,VS_01.CL_VS02_VS.EPOCH
VS_01,CL_VS02_VS,ETCD,Char,8,source.AR_VS02_VS.ETCD,VS.PART_CL_VS02_VS.ETCD,,,,VS_01.CL_VS02_VS.ETCD
VS_01,CL_VS02_VS,TAETORD,Num,8,source.AR_VS02_VS.TAETORD,VS.PART_CL_VS02_VS.TAETORD,,,,VS_01.CL_VS02_VS.TAETORD
VS_01,CL_VS02_VS,VISITDY,Num,8,source.AR_VS02_VS.VISITDY,VS.PART_CL_VS02_VS.VISITDY,,,,VS_01.CL_VS02_VS.VISITDY
VS_01,CL_VS02_VS,VSBLFL,Char,1,source.AR_VS02_VS.VSBLFL,VS.PART_CL_VS02_VS.VSBLFL,,,,VS_01.CL_VS02_VS.VSBLFL
VS_01,CL_VS02_VS,VSDTC,Char,19,source.AR_VS02_VS.VSDTC,VS.PART_CL_VS02_VS.VSDTC,,,,VS_01.CL_VS02_VS.VSDTC
VS_01,CL_VS02_VS,VSDY,Num,8,source.AR_VS02_VS.VSDY,VS.PART_CL_VS02_VS.VSDY,,,,VS_01.CL_VS02_VS.VSDY
VS_01,CL_VS02_VS,VSLAT,Char,50,source.AR_VS02_VS.VSLAT,VS.PART_CL_VS02_VS.VSLAT,,,,VS_01.CL_VS02_VS.VSLAT
VS_01,CL_VS02_VS,VSLOC,Char,80,source.AR_VS02_VS.VSLOC,VS.PART_CL_VS02_VS.VSLOC,,,,VS_01.CL_VS02_VS.VSLOC
VS_01,CL_VS02_VS,VSORRES,Char,60,"if (source.AR_VS02_VS.VSTESTCD in ('BSA','BMI'))''
else  source.AR_VS02_VS.VSORRES",VS.PART_CL_VS02_VS.VSORRES,,,,VS_01.CL_VS02_VS.VSORRES
VS_01,CL_VS02_VS,VSORRESU,Char,25,"if (source.AR_VS02_VS.VSTESTCD in ('BSA','BMI'))''
else  source.AR_VS02_VS.VSORRESU",VS.PART_CL_VS02_VS.VSORRESU,,,,VS_01.CL_VS02_VS.VSORRESU
VS_01,CL_VS02_VS,VSPOS,Char,60,source.AR_VS02_VS.VSPOS,VS.PART_CL_VS02_VS.VSPOS,,,,VS_01.CL_VS02_VS.VSPOS
VS_01,CL_VS02_VS,VSSTRESC,Char,60,source.AR_VS02_VS.VSSTRESC,VS.PART_CL_VS02_VS.VSSTRESC,,,,VS_01.CL_VS02_VS.VSSTRESC
VS_01,CL_VS02_VS,VSSTRESN,Num,8,source.AR_VS02_VS.VSSTRESN,VS.PART_CL_VS02_VS.VSSTRESN,,,,VS_01.CL_VS02_VS.VSSTRESN
VS_01,CL_VS02_VS,VSSTRESU,Char,25,source.AR_VS02_VS.VSSTRESU,VS.PART_CL_VS02_VS.VSSTRESU,,,,VS_01.CL_VS02_VS.VSSTRESU
VS_01,CL_VS02_VS,VSTEST,Char,60,source.AR_VS02_VS.VSTEST,VS.PART_CL_VS02_VS.VSTEST,,,,VS_01.CL_VS02_VS.VSTEST
VS_01,CL_VS02_VS,VSTESTCD,Char,8,source.AR_VS02_VS.VSTESTCD,VS.PART_CL_VS02_VS.VSTESTCD,,,,VS_01.CL_VS02_VS.VSTESTCD
VS_01,CL_VS02_VS,VSTPT,Char,80,source.AR_VS02_VS.VSTPT,VS.PART_CL_VS02_VS.VSTPT,,,,VS_01.CL_VS02_VS.VSTPT
VS_01,CL_VS02_VS,VSTPTNUM,Num,8,source.AR_VS02_VS.VSTPTNUM,VS.PART_CL_VS02_VS.VSTPTNUM,,,,VS_01.CL_VS02_VS.VSTPTNUM
VS_01,CL_VS02_VS,VSDRVFL,Char,1,"if (source.AR_VS02_VS.VSTESTCD in ('BSA','BMI')) 'Y'
else ''",VS.PART_CL_VS02_VS.VSDRVFL,,,,VS_01.CL_VS02_VS.VSDRVFL
VS_01,CL_VS02_VS,DOMAIN,Char,2,'VS',VS.PART_CL_VS02_VS.DOMAIN,,,,VS_01.CL_VS02_VS.DOMAIN
VS_01,CL_VS02_VS,STDYRLEP,Char,200,"lrtrim(left(put(source.AR_VS02_VS.STDYRLEP,""BEST16."")))",VS.PART_CL_VS02_VS.STDYRLEP,,,,VS_01.CL_VS02_VS.STDYRLEP
VS_01,MER_VS,,,0,,,,,,VS_01.MER_VS.
VS_01,CL_VS_PEDI1_SC,SCORRES,Char,200,source.AR_PEDI1_SC.SCORRES,VS.PART_CL_VS_PEDI1_SC.VSORRES,,,,VS_01.CL_VS_PEDI1_SC.SCORRES
VS_01,CL_VS_PEDI1_SC,SCORRESU,Char,25,source.AR_PEDI1_SC.SCORRESU,VS.PART_CL_VS_PEDI1_SC.VSORRESU,,,,VS_01.CL_VS_PEDI1_SC.SCORRESU
VS_01,CL_VS_PEDI1_SC,SCSTRESC,Char,200,source.AR_PEDI1_SC.SCSTRESC,VS.PART_CL_VS_PEDI1_SC.VSSTRESC,,,,VS_01.CL_VS_PEDI1_SC.SCSTRESC
VS_01,CL_VS_PEDI1_SC,SCSTRESN,Num,8,source.AR_PEDI1_SC.SCSTRESN,VS.PART_CL_VS_PEDI1_SC.VSSTRESN,,,,VS_01.CL_VS_PEDI1_SC.SCSTRESN
VS_01,CL_VS_PEDI1_SC,SCSTRESU,Char,25,source.AR_PEDI1_SC.SCSTRESU,VS.PART_CL_VS_PEDI1_SC.VSSTRESU,,,,VS_01.CL_VS_PEDI1_SC.SCSTRESU
VS_01,CL_VS_PEDI1_SC,SCTEST,Char,60,source.AR_PEDI1_SC.SCTEST,VS.PART_CL_VS_PEDI1_SC.VSTEST,,,,VS_01.CL_VS_PEDI1_SC.SCTEST
VS_01,CL_VS_PEDI1_SC,SCTESTCD,Char,8,source.AR_PEDI1_SC.SCTESTCD,VS.PART_CL_VS_PEDI1_SC.VSTESTCD,,,,VS_01.CL_VS_PEDI1_SC.SCTESTCD
VS_01,CL_VS_PEDI1_SC,TAETORD,Num,8,source.AR_PEDI1_SC.TAETORD,VS.PART_CL_VS_PEDI1_SC.TAETORD,,,,VS_01.CL_VS_PEDI1_SC.TAETORD
VS_01,CL_VS_PEDI1_SC,VISITDY,Num,8,source.AR_PEDI1_SC.VISITDY,VS.PART_CL_VS_PEDI1_SC.VISITDY,,,,VS_01.CL_VS_PEDI1_SC.VISITDY
VS_01,CL_VS_PEDI1_SC,SCEVLINX,Char,60,'AT BIRTH',VS.PART_CL_VS_PEDI1_SC.VSEVINTX,,,,VS_01.CL_VS_PEDI1_SC.SCEVLINX
VS_01,CL_VS_PEDI1_SC,SCSEQ,Num,8,source.AR_PEDI1_SC.SCSEQ,VS.PART_CL_VS_PEDI1_SC.VSSEQ,,,,VS_01.CL_VS_PEDI1_SC.SCSEQ
VS_01,CL_VS_PEDI1_SC,SCGRPID,Char,40,source.AR_PEDI1_SC.SCGRPID,VS.PART_CL_VS_PEDI1_SC.VSGRPID,,,,VS_01.CL_VS_PEDI1_SC.SCGRPID
VS_01,CL_VS_PEDI1_SC,VSCAT,Char,200,"""PEDIATRIC SUPPLEMENTAL INFORMATION""",VS.PART_CL_VS_PEDI1_SC.VSCAT,,,,VS_01.CL_VS_PEDI1_SC.VSCAT
VS_01,CL_VS_PEDI1_SC,DOMAIN,Char,2,'VS',VS.PART_CL_VS_PEDI1_SC.DOMAIN,,,,VS_01.CL_VS_PEDI1_SC.DOMAIN
VS_01,CL_VS_PEDI1_SC,STUDYID,Char,12,source.AR_PEDI1_SC.STUDYID,VS.PART_CL_VS_PEDI1_SC.STUDYID,,,,VS_01.CL_VS_PEDI1_SC.STUDYID
VS_01,CL_VS_PEDI1_SC,USUBJID,Char,30,source.AR_PEDI1_SC.USUBJID,VS.PART_CL_VS_PEDI1_SC.USUBJID,,,,VS_01.CL_VS_PEDI1_SC.USUBJID
VS_01,CL_VS_PEDI1_SC,VISIT,Char,60,source.AR_PEDI1_SC.VISIT,VS.PART_CL_VS_PEDI1_SC.VISIT,,,,VS_01.CL_VS_PEDI1_SC.VISIT
VS_01,CL_VS_PEDI1_SC,VISITNUM,Num,8,source.AR_PEDI1_SC.VISITNUM,VS.PART_CL_VS_PEDI1_SC.VISITNUM,,,,VS_01.CL_VS_PEDI1_SC.VISITNUM
VS_01,CL_VS_PEDI1_SC,EPOCH,Char,40,source.AR_PEDI1_SC.EPOCH,VS.PART_CL_VS_PEDI1_SC.EPOCH,,,,VS_01.CL_VS_PEDI1_SC.EPOCH
VS_01,CL_VS_PEDI1_SC,VSDTC,Char,19,source.AR_PEDI1_SC.SCDTC,VS.PART_CL_VS_PEDI1_SC.VSDTC,,,,VS_01.CL_VS_PEDI1_SC.VSDTC
VS_01,CL_VS_PEDI1_SC,VSDY,Num,8,source.AR_PEDI1_SC.SCDY,VS.PART_CL_VS_PEDI1_SC.VSDY,,,,VS_01.CL_VS_PEDI1_SC.VSDY
VS_01,CL_VS_PEDI1_SC,ELEMENT,Char,150,source.AR_PEDI1_SC.ELEMENT,VS.PART_CL_VS_PEDI1_SC.ELEMENT,,,,VS_01.CL_VS_PEDI1_SC.ELEMENT
VS_01,CL_VS_PEDI1_SC,ETCD,Char,8,source.AR_PEDI1_SC.ETCD,VS.PART_CL_VS_PEDI1_SC.ETCD,,,,VS_01.CL_VS_PEDI1_SC.ETCD
VS_01,CL_VS_PEDI1_SC,STDYRLEP,Char,200,"lrtrim(left(put(source.AR_PEDI1_SC.STDYRLEP,""BEST16."")))",VS.PART_CL_VS_PEDI1_SC.STDYRLEP,,,,VS_01.CL_VS_PEDI1_SC.STDYRLEP
VS_01,CL_VS_PEDI1_SC,SCBLFL,Char,1,source.AR_PEDI1_SC.SCBLFL,VS.PART_CL_VS_PEDI1_SC.VSBLFL,,,,VS_01.CL_VS_PEDI1_SC.SCBLFL
MB_01,CL_SLAB_MB,STUDYID,Char,12,source.AR_SLAB_MB.STUDYID,MB.PART_CL_SLAB_MB.STUDYID,,,,MB_01.CL_SLAB_MB.STUDYID
MB_01,CL_SLAB_MB,USUBJID,Char,30,source.AR_SLAB_MB.USUBJID,MB.PART_CL_SLAB_MB.USUBJID,,,,MB_01.CL_SLAB_MB.USUBJID
MB_01,CL_SLAB_MB,VISIT,Char,60,source.AR_SLAB_MB.VISIT,MB.PART_CL_SLAB_MB.VISIT,,,,MB_01.CL_SLAB_MB.VISIT
MB_01,CL_SLAB_MB,MBSEQ,Num,8,source.AR_SLAB_MB.MBSEQ,MB.PART_CL_SLAB_MB.MBSEQ,,,,MB_01.CL_SLAB_MB.MBSEQ
MB_01,CL_SLAB_MB,MBGRPID,Char,40,source.AR_SLAB_MB.MBGRPID,MB.PART_CL_SLAB_MB.MBGRPID,,,,MB_01.CL_SLAB_MB.MBGRPID
MB_01,CL_SLAB_MB,MBSPID,Char,20,source.AR_SLAB_MB.MBSPID,MB.PART_CL_SLAB_MB.MBSPID,,,,MB_01.CL_SLAB_MB.MBSPID
MB_01,CL_SLAB_MB,VISITNUM,Num,8,source.AR_SLAB_MB.VISITNUM,MB.PART_CL_SLAB_MB.VISITNUM,,,,MB_01.CL_SLAB_MB.VISITNUM
MB_01,CL_SLAB_MB,EPOCH,Char,40,source.AR_SLAB_MB.EPOCH,MB.PART_CL_SLAB_MB.EPOCH,,,,MB_01.CL_SLAB_MB.EPOCH
MB_01,CL_SLAB_MB,MBBLFL,Char,1,source.AR_SLAB_MB.MBBLFL,MB.PART_CL_SLAB_MB.MBBLFL,,,,MB_01.CL_SLAB_MB.MBBLFL
MB_01,CL_SLAB_MB,MBCAT,Char,80,source.AR_SLAB_MB.MBCAT,MB.PART_CL_SLAB_MB.MBCAT,,,,MB_01.CL_SLAB_MB.MBCAT
MB_01,CL_SLAB_MB,MBDTC,Char,19,source.AR_SLAB_MB.MBDTC,MB.PART_CL_SLAB_MB.MBDTC,,,,MB_01.CL_SLAB_MB.MBDTC
MB_01,CL_SLAB_MB,MBDY,Num,8,source.AR_SLAB_MB.MBDY,MB.PART_CL_SLAB_MB.MBDY,,,,MB_01.CL_SLAB_MB.MBDY
MB_01,CL_SLAB_MB,MBLOC,Char,80,source.AR_SLAB_MB.MBLOC,MB.PART_CL_SLAB_MB.MBLOC,,,,MB_01.CL_SLAB_MB.MBLOC
MB_01,CL_SLAB_MB,MBMETHOD,Char,200,source.AR_SLAB_MB.MBMETHOD,MB.PART_CL_SLAB_MB.MBMETHOD,,,,MB_01.CL_SLAB_MB.MBMETHOD
MB_01,CL_SLAB_MB,MBORRES,Char,200,source.AR_SLAB_MB.MBORRES,MB.PART_CL_SLAB_MB.MBORRES,,,,MB_01.CL_SLAB_MB.MBORRES
MB_01,CL_SLAB_MB,MBSPEC,Char,200,source.AR_SLAB_MB.MBSPEC,MB.PART_CL_SLAB_MB.MBSPEC,,,,MB_01.CL_SLAB_MB.MBSPEC
MB_01,CL_SLAB_MB,MBSTRESC,Char,200,source.AR_SLAB_MB.MBSTRESC,MB.PART_CL_SLAB_MB.MBSTRESC,,,,MB_01.CL_SLAB_MB.MBSTRESC
MB_01,CL_SLAB_MB,MBTEST,Char,60,"if(source.AR_SLAB_MB.MBTEST= 'Organism Present') ""Microbial Organism Identification""
else source.AR_SLAB_MB.MBTEST",MB.PART_CL_SLAB_MB.MBTEST,,,,MB_01.CL_SLAB_MB.MBTEST
MB_01,CL_SLAB_MB,MBTESTCD,Char,8,"if(source.AR_SLAB_MB.MBTEST= 'Organism Present') ""MCORGIDN""
else source.AR_SLAB_MB.MBTESTCD",MB.PART_CL_SLAB_MB.MBTESTCD,,,,MB_01.CL_SLAB_MB.MBTESTCD
MB_01,CL_SLAB_MB,TAETORD,Num,8,source.AR_SLAB_MB.TAETORD,MB.PART_CL_SLAB_MB.TAETORD,,,,MB_01.CL_SLAB_MB.TAETORD
MB_01,CL_SLAB_MB,VISITDY,Num,8,source.AR_SLAB_MB.VISITDY,MB.PART_CL_SLAB_MB.VISITDY,,,,MB_01.CL_SLAB_MB.VISITDY
MB_01,CL_SLAB_MB,DOMAIN,Char,2,'MB',MB.PART_CL_SLAB_MB.DOMAIN,,,,MB_01.CL_SLAB_MB.DOMAIN
MB_01,CL_SLAB_MB,MBRESCAT,Char,200,'',MB.PART_CL_SLAB_MB.MBRESCAT,,,,MB_01.CL_SLAB_MB.MBRESCAT
MB_01,CL_SLAB_MB,ELEMENT,Char,150,source.AR_SLAB_MB.ELEMENT,MB.PART_CL_SLAB_MB.ELEMENT,,,,MB_01.CL_SLAB_MB.ELEMENT
MB_01,CL_SLAB_MB,ETCD,Char,8,source.AR_SLAB_MB.ETCD,MB.PART_CL_SLAB_MB.ETCD,,,,MB_01.CL_SLAB_MB.ETCD
LB_01,CL_LABS_EDT_LB,LBCLIMPL,Char,1,source.AR_LABS_EDT_LB.CLINPLAU,LB.PART_LABS_EDT_LB.LBCLIMPL,,,,LB_01.CL_LABS_EDT_LB.LBCLIMPL
LB_01,CL_LABS_EDT_LB,ELEMENT,Char,150,source.AR_LABS_EDT_LB.ELEMENT,LB.PART_LABS_EDT_LB.ELEMENT,,,,LB_01.CL_LABS_EDT_LB.ELEMENT
LB_01,CL_LABS_EDT_LB,ETCD,Char,8,source.AR_LABS_EDT_LB.ETCD,LB.PART_LABS_EDT_LB.ETCD,,,,LB_01.CL_LABS_EDT_LB.ETCD
LB_01,CL_LABS_EDT_LB,LBCONC,Char,80,source.AR_LABS_EDT_LB.LBCONC,LB.PART_LABS_EDT_LB.LBCONC,,,,LB_01.CL_LABS_EDT_LB.LBCONC
LB_01,CL_LABS_EDT_LB,LBCONN,Char,200,"lrtrim(left(put(source.AR_LABS_EDT_LB.LBCONN,""BEST16."")))",LB.PART_LABS_EDT_LB.LBCONN,,,,LB_01.CL_LABS_EDT_LB.LBCONN
LB_01,CL_LABS_EDT_LB,LBCONRHI,Char,200,"lrtrim(left(put(source.AR_LABS_EDT_LB.LBCONRHI,""BEST16."")))",LB.PART_LABS_EDT_LB.LBCONRHI,,,,LB_01.CL_LABS_EDT_LB.LBCONRHI
LB_01,CL_LABS_EDT_LB,LBCONRLO,Char,200,"lrtrim(left(put(source.AR_LABS_EDT_LB.LBCONRLO,""BEST16."")))",LB.PART_LABS_EDT_LB.LBCONRLO,,,,LB_01.CL_LABS_EDT_LB.LBCONRLO
LB_01,CL_LABS_EDT_LB,LBCONU,Char,20,"if (source.AR_LABS_EDT_LB.LBCONU = '/uL' ) '10^6/L'
else if (source.AR_LABS_EDT_LB.LBCONU = '10^6/ejaculate' ) '10^6/Ejaculate U'
else if (source.AR_LABS_EDT_LB.LBCONU = 'HPF') '/HPF'
else if (source.AR_LABS_EDT_LB.LBCONU = 'LPF') '/LPF'
else if (source.AR_LABS_EDT_LB.LBCONU = 'mL/g') 'L/kg'
else if (source.AR_LABS_EDT_LB.LBCONU = 's/co') ''
else source.AR_LABS_EDT_LB.LBCONU",LB.PART_LABS_EDT_LB.LBCONU,,,,LB_01.CL_LABS_EDT_LB.LBCONU
LB_01,CL_LABS_EDT_LB,STUDYID,Char,12,source.AR_LABS_EDT_LB.STUDYID,LB.PART_LABS_EDT_LB.STUDYID,,,,LB_01.CL_LABS_EDT_LB.STUDYID
LB_01,CL_LABS_EDT_LB,USUBJID,Char,30,source.AR_LABS_EDT_LB.USUBJID,LB.PART_LABS_EDT_LB.USUBJID,,,,LB_01.CL_LABS_EDT_LB.USUBJID
LB_01,CL_LABS_EDT_LB,VISIT,Char,60,source.AR_LABS_EDT_LB.VISIT,LB.PART_LABS_EDT_LB.VISIT,,,,LB_01.CL_LABS_EDT_LB.VISIT
LB_01,CL_LABS_EDT_LB,LBSEQ,Num,8,source.AR_LABS_EDT_LB.LBSEQ,LB.PART_LABS_EDT_LB.LBSEQ,,,,LB_01.CL_LABS_EDT_LB.LBSEQ
LB_01,CL_LABS_EDT_LB,LBREFID,Char,30,source.AR_LABS_EDT_LB.LBREFID,LB.PART_LABS_EDT_LB.LBREFID,,,,LB_01.CL_LABS_EDT_LB.LBREFID
LB_01,CL_LABS_EDT_LB,LBTESTCD,Char,8,"if (source.AR_LABS_EDT_LB.LBTESTCD = 'COCANEMB') 'COCBNZEC'
else if(source.AR_LABS_EDT_LB.LBTESTCD = 'IRONSTOR' ) 'HMOSIDRN'
else if(source.AR_LABS_EDT_LB.LBTESTCD = 'HCABSC' ) 'HCVSHCVC'
else if(source.AR_LABS_EDT_LB.LBTESTCD = 'LIPASE' ) 'LIPASET'
else if(source.AR_LABS_EDT_LB.LBTESTCD in ('CMVDNA','DENGV1VL','DENGV2VL','DENGV3VL','DENGV4VL','HCVVLD','HBDNA','HIVVLD', 'HIV1VLD','VZVDNA')) ''
else source.AR_LABS_EDT_LB.LBTESTCD",LB.PART_LABS_EDT_LB.LBTESTCD,,,,LB_01.CL_LABS_EDT_LB.LBTESTCD
LB_01,CL_LABS_EDT_LB,VISITNUM,Num,8,source.AR_LABS_EDT_LB.VISITNUM,LB.PART_LABS_EDT_LB.VISITNUM,,,,LB_01.CL_LABS_EDT_LB.VISITNUM
LB_01,CL_LABS_EDT_LB,EPOCH,Char,40,source.AR_LABS_EDT_LB.EPOCH,LB.PART_LABS_EDT_LB.EPOCH,,,,LB_01.CL_LABS_EDT_LB.EPOCH
LB_01,CL_LABS_EDT_LB,LBANMETH,Char,100,source.AR_LABS_EDT_LB.LBANMETH,LB.PART_LABS_EDT_LB.LBANMETH,,,,LB_01.CL_LABS_EDT_LB.LBANMETH
LB_01,CL_LABS_EDT_LB,LBBLFL,Char,1,source.AR_LABS_EDT_LB.LBBLFL,LB.PART_LABS_EDT_LB.LBBLFL,,,,LB_01.CL_LABS_EDT_LB.LBBLFL
LB_01,CL_LABS_EDT_LB,LBCAT,Char,80,source.AR_LABS_EDT_LB.LBCAT,LB.PART_LABS_EDT_LB.LBCAT,,,,LB_01.CL_LABS_EDT_LB.LBCAT
LB_01,CL_LABS_EDT_LB,LBDTC,Char,19,source.AR_LABS_EDT_LB.LBDTC,LB.PART_LABS_EDT_LB.LBDTC,,,,LB_01.CL_LABS_EDT_LB.LBDTC
LB_01,CL_LABS_EDT_LB,LBDY,Num,8,source.AR_LABS_EDT_LB.LBDY,LB.PART_LABS_EDT_LB.LBDY,,,,LB_01.CL_LABS_EDT_LB.LBDY
LB_01,CL_LABS_EDT_LB,LBENDTC,Char,19,source.AR_LABS_EDT_LB.LBENDTC,LB.PART_LABS_EDT_LB.LBENDTC,,,,LB_01.CL_LABS_EDT_LB.LBENDTC
LB_01,CL_LABS_EDT_LB,LBENDY,Num,8,source.AR_LABS_EDT_LB.LBENDY,LB.PART_LABS_EDT_LB.LBENDY,,,,LB_01.CL_LABS_EDT_LB.LBENDY
LB_01,CL_LABS_EDT_LB,LBFAST,Char,2,source.AR_LABS_EDT_LB.LBFAST,LB.PART_LABS_EDT_LB.LBFAST,,,,LB_01.CL_LABS_EDT_LB.LBFAST
LB_01,CL_LABS_EDT_LB,LBGRPID,Char,40,source.AR_LABS_EDT_LB.LBGRPID,LB.PART_LABS_EDT_LB.LBGRPID,,,,LB_01.CL_LABS_EDT_LB.LBGRPID
LB_01,CL_LABS_EDT_LB,LBLAT,Char,80,source.AR_LABS_EDT_LB.LBLAT,LB.PART_LABS_EDT_LB.LBLAT,,,,LB_01.CL_LABS_EDT_LB.LBLAT
LB_01,CL_LABS_EDT_LB,LBLOC,Char,80,source.AR_LABS_EDT_LB.LBLOC,LB.PART_LABS_EDT_LB.LBLOC,,,,LB_01.CL_LABS_EDT_LB.LBLOC
LB_01,CL_LABS_EDT_LB,METHDTL,Char,200,"if (source.AR_LABS_EDT_LB.LBMETHOD= 'LIQUID-BASED PAP TEST') 'LIQUID-BASED'
else ''",LB.PART_LABS_EDT_LB.METHDTL,,,,LB_01.CL_LABS_EDT_LB.METHDTL
LB_01,CL_LABS_EDT_LB,LBNAM,Char,200,source.AR_LABS_EDT_LB.LBNAM,LB.PART_LABS_EDT_LB.LBNAM,,,,LB_01.CL_LABS_EDT_LB.LBNAM
LB_01,CL_LABS_EDT_LB,LBNRIND,Char,40,source.AR_LABS_EDT_LB.LBNRIND,LB.PART_LABS_EDT_LB.LBNRIND,,,,LB_01.CL_LABS_EDT_LB.LBNRIND
LB_01,CL_LABS_EDT_LB,LBORNRHI,Char,40,lrtrim(source.AR_LABS_EDT_LB.LBORNRHI),LB.PART_LABS_EDT_LB.LBORNRHI,,,,LB_01.CL_LABS_EDT_LB.LBORNRHI
LB_01,CL_LABS_EDT_LB,LBORNRLO,Char,40,lrtrim(source.AR_LABS_EDT_LB.LBORNRLO),LB.PART_LABS_EDT_LB.LBORNRLO,,,,LB_01.CL_LABS_EDT_LB.LBORNRLO
LB_01,CL_LABS_EDT_LB,LBORRES,Char,200,source.AR_LABS_EDT_LB.LBORRES,LB.PART_LABS_EDT_LB.LBORRES,,,,LB_01.CL_LABS_EDT_LB.LBORRES
LB_01,CL_LABS_EDT_LB,LBORRESU,Char,25,"If(source.AR_LABS_EDT_LB.LBORRESU = '/uL' ) '10^6/L'
else If (source.AR_LABS_EDT_LB.LBORRESU  = '10^6/ejaculate' ) '10^6/Ejaculate U'
else If (source.AR_LABS_EDT_LB.LBORRESU = 'HPF' ) '/HPF'
else If( source.AR_LABS_EDT_LB.LBORRESU = 'LPF' ) '/LPF'
else if (source.AR_LABS_EDT_LB.LBORRESU = 'mL/g' ) 'L/kg'
else If (source.AR_LABS_EDT_LB.LBORRESU = 's/co' ) ''
else source.AR_LABS_EDT_LB.LBORRESU",LB.PART_LABS_EDT_LB.LBORRESU,,,,LB_01.CL_LABS_EDT_LB.LBORRESU
LB_01,CL_LABS_EDT_LB,LBREASND,Char,200,source.AR_LABS_EDT_LB.LBREASND,LB.PART_LABS_EDT_LB.LBREASND,,,,LB_01.CL_LABS_EDT_LB.LBREASND
LB_01,CL_LABS_EDT_LB,LBSCAT,Char,80,source.AR_LABS_EDT_LB.LBSCAT,LB.PART_LABS_EDT_LB.LBSCAT,,,,LB_01.CL_LABS_EDT_LB.LBSCAT
LB_01,CL_LABS_EDT_LB,LBSPCCND,Char,200,source.AR_LABS_EDT_LB.LBSPCCND,LB.PART_LABS_EDT_LB.LBSPCCND,,,,LB_01.CL_LABS_EDT_LB.LBSPCCND
LB_01,CL_LABS_EDT_LB,LBSPEC,Char,40,source.AR_LABS_EDT_LB.LBSPEC,LB.PART_LABS_EDT_LB.LBSPEC,,,,LB_01.CL_LABS_EDT_LB.LBSPEC
LB_01,CL_LABS_EDT_LB,LBSPID,Char,20,source.AR_LABS_EDT_LB.LBSPID,LB.PART_LABS_EDT_LB.LBSPID,,,,LB_01.CL_LABS_EDT_LB.LBSPID
LB_01,CL_LABS_EDT_LB,LBSTAT,Char,8,source.AR_LABS_EDT_LB.LBSTAT,LB.PART_LABS_EDT_LB.LBSTAT,,,,LB_01.CL_LABS_EDT_LB.LBSTAT
LB_01,CL_LABS_EDT_LB,LBSTNRC,Char,20,source.AR_LABS_EDT_LB.LBSTNRC,LB.PART_LABS_EDT_LB.LBSTNRC,,,,LB_01.CL_LABS_EDT_LB.LBSTNRC
LB_01,CL_LABS_EDT_LB,LBSTNRHI,Num,8,source.AR_LABS_EDT_LB.LBSTNRHI,LB.PART_LABS_EDT_LB.LBSTNRHI,,,,LB_01.CL_LABS_EDT_LB.LBSTNRHI
LB_01,CL_LABS_EDT_LB,LBSTNRLO,Num,8,source.AR_LABS_EDT_LB.LBSTNRLO,LB.PART_LABS_EDT_LB.LBSTNRLO,,,,LB_01.CL_LABS_EDT_LB.LBSTNRLO
LB_01,CL_LABS_EDT_LB,LBSTRESC,Char,80,source.AR_LABS_EDT_LB.LBSTRESC,LB.PART_LABS_EDT_LB.LBSTRESC,,,,LB_01.CL_LABS_EDT_LB.LBSTRESC
LB_01,CL_LABS_EDT_LB,LBSTRESN,Num,8,source.AR_LABS_EDT_LB.LBSTRESN,LB.PART_LABS_EDT_LB.LBSTRESN,,,,LB_01.CL_LABS_EDT_LB.LBSTRESN
LB_01,CL_LABS_EDT_LB,LBSTRESU,Char,35,"if (source.AR_LABS_EDT_LB.LBCONU = '/uL' ) '10^6/L'
else if (source.AR_LABS_EDT_LB.LBCONU = '10^6/ejaculate' ) '10^6/Ejaculate U'
else if (source.AR_LABS_EDT_LB.LBCONU = 'HPF') '/HPF'
else if (source.AR_LABS_EDT_LB.LBCONU = 'LPF') '/LPF'
else if (source.AR_LABS_EDT_LB.LBCONU = 'mL/g') 'L/kg'
else if (source.AR_LABS_EDT_LB.LBCONU = 's/co') ''
else source.AR_LABS_EDT_LB.LBSTRESU",LB.PART_LABS_EDT_LB.LBSTRESU,,,,LB_01.CL_LABS_EDT_LB.LBSTRESU
LB_01,CL_LABS_EDT_LB,LBTEST,Char,60,"if (source.AR_LABS_EDT_LB.LBTEST = '11-Nor-9-Carboxy-Tetrahydrocannabinol' ) '11-Nor-Delta9-THC-9-Carboxylic Acid'
else if(source.AR_LABS_EDT_LB.LBTEST = 'Cocaine and Metabolites') 'Cocaine Benzoylecgonine Ecgonine'
else if(source.AR_LABS_EDT_LB.LBTEST = 'Iron Stores') 'Hemosiderin'
else if(source.AR_LABS_EDT_LB.LBTEST = 'Hepatitis C Virus Antibody Signal/Cutoff') 'HCV Antibody Signal/HCV Antibody Cutoff'
else if(source.AR_LABS_EDT_LB.LBTEST = 'Triacylglycerol Lipase' ) 'Lipase'
else source.AR_LABS_EDT_LB.LBTEST",LB.PART_LABS_EDT_LB.LBTEST,,,,LB_01.CL_LABS_EDT_LB.LBTEST
LB_01,CL_LABS_EDT_LB,LBTOX,Char,60,source.AR_LABS_EDT_LB.LBTOX,LB.PART_LABS_EDT_LB.LBTOX,,,,LB_01.CL_LABS_EDT_LB.LBTOX
LB_01,CL_LABS_EDT_LB,LBTOXGR,Char,200,source.AR_LABS_EDT_LB.LBTOXGR,LB.PART_LABS_EDT_LB.LBTOXGR,,,,LB_01.CL_LABS_EDT_LB.LBTOXGR
LB_01,CL_LABS_EDT_LB,LBTPT,Char,80,source.AR_LABS_EDT_LB.LBTPT,LB.PART_LABS_EDT_LB.LBTPT,,,,LB_01.CL_LABS_EDT_LB.LBTPT
LB_01,CL_LABS_EDT_LB,LBTPTNUM,Num,8,source.AR_LABS_EDT_LB.LBTPTNUM,LB.PART_LABS_EDT_LB.LBTPTNUM,,,,LB_01.CL_LABS_EDT_LB.LBTPTNUM
LB_01,CL_LABS_EDT_LB,TAETORD,Num,8,source.AR_LABS_EDT_LB.TAETORD,LB.PART_LABS_EDT_LB.TAETORD,,,,LB_01.CL_LABS_EDT_LB.TAETORD
LB_01,CL_LABS_EDT_LB,VISITDY,Num,8,source.AR_LABS_EDT_LB.VISITDY,LB.PART_LABS_EDT_LB.VISITDY,,,,LB_01.CL_LABS_EDT_LB.VISITDY
LB_01,CL_LABS_EDT_LB,DOMAIN,Char,2,'LB',LB.PART_LABS_EDT_LB.DOMAIN,,,,LB_01.CL_LABS_EDT_LB.DOMAIN
LB_01,CL_LABS_EDT_LB,DILNFCTR,Char,200,source.AR_LABS_EDT_LB.DILNFCTR,LB.PART_LABS_EDT_LB.DILNFCTR,,,,LB_01.CL_LABS_EDT_LB.DILNFCTR
LB_01,CL_LABS_EDT_LB,LBTSTDTL,Char,200,source.AR_LABS_EDT_LB.TSTDTL,LB.PART_LABS_EDT_LB.LBTSTDTL,,,,LB_01.CL_LABS_EDT_LB.LBTSTDTL
LB_01,CL_LABS_EDT_LB,ASSYAG,Char,200,source.AR_LABS_EDT_LB.ASSYAG,LB.PART_LABS_EDT_LB.ASSYAG,,,,LB_01.CL_LABS_EDT_LB.ASSYAG
LB_01,CL_LABS_EDT_LB,CLINPLAU,Char,1,source.AR_LABS_EDT_LB.CLINPLAU,LB.PART_LABS_EDT_LB.CLINPLAU,,,,LB_01.CL_LABS_EDT_LB.CLINPLAU
LB_01,CL_LABS_EDT_LB,STDYRLEP,Char,200,"lrtrim(left(put(source.AR_LABS_EDT_LB.STDYRLEP ,""BEST16."")))",LB.PART_LABS_EDT_LB.STDYRLEP,,,,LB_01.CL_LABS_EDT_LB.STDYRLEP
LB_01,CL_LABS_EDT_LB,LBMETHOD,Char,200,"if (source.AR_LABS_EDT_LB.LBMETHOD = ""PAP TEST"" ) ""PAP STAIN""  
else if (source.AR_LABS_EDT_LB.LBMETHOD = ""LIQUID-BASED PAP TEST"") ""PAP STAIN""
else source.AR_LABS_EDT_LB.LBMETHOD",LB.PART_LABS_EDT_LB.LBMETHOD,,,,LB_01.CL_LABS_EDT_LB.LBMETHOD
QS_01,CL_CSD_EDT_QS,STUDYID,Char,12,source.AR_CSD_EDT_QS.STUDYID,QS.PART_CL_CSD_EDT_QS.STUDYID,,,,QS_01.CL_CSD_EDT_QS.STUDYID
QS_01,CL_CSD_EDT_QS,USUBJID,Char,30,source.AR_CSD_EDT_QS.USUBJID,QS.PART_CL_CSD_EDT_QS.USUBJID,,,,QS_01.CL_CSD_EDT_QS.USUBJID
QS_01,CL_CSD_EDT_QS,VISIT,Char,60,source.AR_CSD_EDT_QS.VISIT,QS.PART_CL_CSD_EDT_QS.VISIT,,,,QS_01.CL_CSD_EDT_QS.VISIT
QS_01,CL_CSD_EDT_QS,QSSEQ,Num,8,source.AR_CSD_EDT_QS.QSSEQ,QS.PART_CL_CSD_EDT_QS.QSSEQ,,,,QS_01.CL_CSD_EDT_QS.QSSEQ
QS_01,CL_CSD_EDT_QS,QSREFID,Char,128,source.AR_CSD_EDT_QS.QSREFID,QS.PART_CL_CSD_EDT_QS.QSREFID,,,,QS_01.CL_CSD_EDT_QS.QSREFID
QS_01,CL_CSD_EDT_QS,QSTESTCD,Char,8,source.AR_CSD_EDT_QS.QSTESTCD,QS.PART_CL_CSD_EDT_QS.QSTESTCD,,,,QS_01.CL_CSD_EDT_QS.QSTESTCD
QS_01,CL_CSD_EDT_QS,ELEMENT,Char,150,source.AR_CSD_EDT_QS.ELEMENT,QS.PART_CL_CSD_EDT_QS.ELEMENT,,,,QS_01.CL_CSD_EDT_QS.ELEMENT
QS_01,CL_CSD_EDT_QS,EPOCH,Char,40,source.AR_CSD_EDT_QS.EPOCH,QS.PART_CL_CSD_EDT_QS.EPOCH,,,,QS_01.CL_CSD_EDT_QS.EPOCH
QS_01,CL_CSD_EDT_QS,ETCD,Char,8,source.AR_CSD_EDT_QS.ETCD,QS.PART_CL_CSD_EDT_QS.ETCD,,,,QS_01.CL_CSD_EDT_QS.ETCD
QS_01,CL_CSD_EDT_QS,QSBLFL,Char,1,source.AR_CSD_EDT_QS.QSBLFL,QS.PART_CL_CSD_EDT_QS.QSBLFL,,,,QS_01.CL_CSD_EDT_QS.QSBLFL
QS_01,CL_CSD_EDT_QS,QSCAT,Char,128,source.AR_CSD_EDT_QS.QSCAT,QS.PART_CL_CSD_EDT_QS.QSCAT,,,,QS_01.CL_CSD_EDT_QS.QSCAT
QS_01,CL_CSD_EDT_QS,QSDTC,Char,19,source.AR_CSD_EDT_QS.QSDTC,QS.PART_CL_CSD_EDT_QS.QSDTC,,,,QS_01.CL_CSD_EDT_QS.QSDTC
QS_01,CL_CSD_EDT_QS,QSDY,Num,8,source.AR_CSD_EDT_QS.QSDY,QS.PART_CL_CSD_EDT_QS.QSDY,,,,QS_01.CL_CSD_EDT_QS.QSDY
QS_01,CL_CSD_EDT_QS,QSEVAL,Char,200,source.AR_CSD_EDT_QS.QSEVAL,QS.PART_CL_CSD_EDT_QS.QSEVAL,,,,QS_01.CL_CSD_EDT_QS.QSEVAL
QS_01,CL_CSD_EDT_QS,QSEVLINX,Char,60,source.AR_CSD_EDT_QS.QSEVLINX,QS.PART_CL_CSD_EDT_QS.QSEVINTX,,,,QS_01.CL_CSD_EDT_QS.QSEVLINX
QS_01,CL_CSD_EDT_QS,QSGRPID,Char,40,source.AR_CSD_EDT_QS.QSGRPID,QS.PART_CL_CSD_EDT_QS.QSGRPID,,,,QS_01.CL_CSD_EDT_QS.QSGRPID
QS_01,CL_CSD_EDT_QS,QSMETHOD,Char,200,source.AR_CSD_EDT_QS.QSMETHOD,QS.PART_CL_CSD_EDT_QS.QSMETHOD,,,,QS_01.CL_CSD_EDT_QS.QSMETHOD
QS_01,CL_CSD_EDT_QS,QSNAM,Char,200,source.AR_CSD_EDT_QS.QSNAM,QS.PART_CL_CSD_EDT_QS.QSNAM,,,,QS_01.CL_CSD_EDT_QS.QSNAM
QS_01,CL_CSD_EDT_QS,QSORRES,Char,200,source.AR_CSD_EDT_QS.QSORRES,QS.PART_CL_CSD_EDT_QS.QSORRES,,,,QS_01.CL_CSD_EDT_QS.QSORRES
QS_01,CL_CSD_EDT_QS,QSSPID,Char,200,source.AR_CSD_EDT_QS.QSSPID,QS.PART_CL_CSD_EDT_QS.QSSPID,,,,QS_01.CL_CSD_EDT_QS.QSSPID
QS_01,CL_CSD_EDT_QS,QSSTRESC,Char,200,source.AR_CSD_EDT_QS.QSSTRESC,QS.PART_CL_CSD_EDT_QS.QSSTRESC,,,,QS_01.CL_CSD_EDT_QS.QSSTRESC
QS_01,CL_CSD_EDT_QS,QSSTRESN,Num,8,source.AR_CSD_EDT_QS.QSSTRESN,QS.PART_CL_CSD_EDT_QS.QSSTRESN,,,,QS_01.CL_CSD_EDT_QS.QSSTRESN
QS_01,CL_CSD_EDT_QS,QSTEST,Char,60,source.AR_CSD_EDT_QS.QSTEST,QS.PART_CL_CSD_EDT_QS.QSTEST,,,,QS_01.CL_CSD_EDT_QS.QSTEST
QS_01,CL_CSD_EDT_QS,RNGTXTHI,Char,128,source.AR_CSD_EDT_QS.RNGTXTHI,QS.PART_CL_CSD_EDT_QS.RNGTXTHI,,,,QS_01.CL_CSD_EDT_QS.RNGTXTHI
QS_01,CL_CSD_EDT_QS,RNGTXTLO,Char,128,source.AR_CSD_EDT_QS.RNGTXTLO,QS.PART_CL_CSD_EDT_QS.RNGTXTLO,,,,QS_01.CL_CSD_EDT_QS.RNGTXTLO
QS_01,CL_CSD_EDT_QS,RNGVALHI,Char,200,"lrtrim(left(put(source.AR_CSD_EDT_QS.RNGVALHI,""BEST16."")))",QS.PART_CL_CSD_EDT_QS.RNGVALHI,,,,QS_01.CL_CSD_EDT_QS.RNGVALHI
QS_01,CL_CSD_EDT_QS,RNGVALLO,Char,200,"lrtrim(left(put(source.AR_CSD_EDT_QS.RNGVALLO,""BEST16."")))",QS.PART_CL_CSD_EDT_QS.RNGVALLO,,,,QS_01.CL_CSD_EDT_QS.RNGVALLO
QS_01,CL_CSD_EDT_QS,TAETORD,Num,8,source.AR_CSD_EDT_QS.TAETORD,QS.PART_CL_CSD_EDT_QS.TAETORD,,,,QS_01.CL_CSD_EDT_QS.TAETORD
QS_01,CL_CSD_EDT_QS,VISITDY,Num,8,source.AR_CSD_EDT_QS.VISITDY,QS.PART_CL_CSD_EDT_QS.VISITDY,,,,QS_01.CL_CSD_EDT_QS.VISITDY
QS_01,CL_CSD_EDT_QS,DOMAIN,Char,2,'QS',QS.PART_CL_CSD_EDT_QS.DOMAIN,,,,QS_01.CL_CSD_EDT_QS.DOMAIN
QS_01,CL_CSD_EDT_QS,VISITNUM,Num,8,source.AR_CSD_EDT_QS.VISITNUM,QS.PART_CL_CSD_EDT_QS.VISITNUM,,,,QS_01.CL_CSD_EDT_QS.VISITNUM
QS_01,CL_CSD_EDT_QS,VERSION,Char,200,intermediate.TX_VER_CSD_EDT.ORRES,QS.PART_CL_CSD_EDT_QS.VERSION,QSGRPID,,,QS_01.CL_CSD_EDT_QS.VERSION
QS_01,CL_CSVAS_EDT_QS,STUDYID,Char,12,source.AR_CSVAS_EDT_QS.STUDYID,QS.PART_CL_CSVAS_EDT_QS.STUDYID,,,,QS_01.CL_CSVAS_EDT_QS.STUDYID
QS_01,CL_CSVAS_EDT_QS,VISIT,Char,60,source.AR_CSVAS_EDT_QS.VISIT,QS.PART_CL_CSVAS_EDT_QS.VISIT,,,,QS_01.CL_CSVAS_EDT_QS.VISIT
QS_01,CL_CSVAS_EDT_QS,QSSEQ,Num,8,source.AR_CSVAS_EDT_QS.QSSEQ,QS.PART_CL_CSVAS_EDT_QS.QSSEQ,,,,QS_01.CL_CSVAS_EDT_QS.QSSEQ
QS_01,CL_CSVAS_EDT_QS,QSREFID,Char,40,source.AR_CSVAS_EDT_QS.QSREFID,QS.PART_CL_CSVAS_EDT_QS.QSREFID,,,,QS_01.CL_CSVAS_EDT_QS.QSREFID
QS_01,CL_CSVAS_EDT_QS,QSTESTCD,Char,8,source.AR_CSVAS_EDT_QS.QSTESTCD,QS.PART_CL_CSVAS_EDT_QS.QSTESTCD,,,,QS_01.CL_CSVAS_EDT_QS.QSTESTCD
QS_01,CL_CSVAS_EDT_QS,USUBJID,Char,30,source.AR_CSVAS_EDT_QS.USUBJID,QS.PART_CL_CSVAS_EDT_QS.USUBJID,,,,QS_01.CL_CSVAS_EDT_QS.USUBJID
QS_01,CL_CSVAS_EDT_QS,ELEMENT,Char,150,source.AR_CSVAS_EDT_QS.ELEMENT,QS.PART_CL_CSVAS_EDT_QS.ELEMENT,,,,QS_01.CL_CSVAS_EDT_QS.ELEMENT
QS_01,CL_CSVAS_EDT_QS,EPOCH,Char,40,source.AR_CSVAS_EDT_QS.EPOCH,QS.PART_CL_CSVAS_EDT_QS.EPOCH,,,,QS_01.CL_CSVAS_EDT_QS.EPOCH
QS_01,CL_CSVAS_EDT_QS,ETCD,Char,8,source.AR_CSVAS_EDT_QS.ETCD,QS.PART_CL_CSVAS_EDT_QS.ETCD,,,,QS_01.CL_CSVAS_EDT_QS.ETCD
QS_01,CL_CSVAS_EDT_QS,QSBLFL,Char,1,source.AR_CSVAS_EDT_QS.QSBLFL,QS.PART_CL_CSVAS_EDT_QS.QSBLFL,,,,QS_01.CL_CSVAS_EDT_QS.QSBLFL
QS_01,CL_CSVAS_EDT_QS,QSCAT,Char,120,source.AR_CSVAS_EDT_QS.QSCAT,QS.PART_CL_CSVAS_EDT_QS.QSCAT,,,,QS_01.CL_CSVAS_EDT_QS.QSCAT
QS_01,CL_CSVAS_EDT_QS,QSDTC,Char,19,source.AR_CSVAS_EDT_QS.QSDTC,QS.PART_CL_CSVAS_EDT_QS.QSDTC,,,,QS_01.CL_CSVAS_EDT_QS.QSDTC
QS_01,CL_CSVAS_EDT_QS,QSDY,Num,8,source.AR_CSVAS_EDT_QS.QSDY,QS.PART_CL_CSVAS_EDT_QS.QSDY,,,,QS_01.CL_CSVAS_EDT_QS.QSDY
QS_01,CL_CSVAS_EDT_QS,QSEVAL,Char,60,source.AR_CSVAS_EDT_QS.QSEVAL,QS.PART_CL_CSVAS_EDT_QS.QSEVAL,,,,QS_01.CL_CSVAS_EDT_QS.QSEVAL
QS_01,CL_CSVAS_EDT_QS,QSEVINTX,Char,60,source.AR_CSVAS_EDT_QS.QSEVLINX,QS.PART_CL_CSVAS_EDT_QS.QSEVINTX,,,,QS_01.CL_CSVAS_EDT_QS.QSEVINTX
QS_01,CL_CSVAS_EDT_QS,QSGRPID,Char,40,source.AR_CSVAS_EDT_QS.QSGRPID,QS.PART_CL_CSVAS_EDT_QS.QSGRPID,,,,QS_01.CL_CSVAS_EDT_QS.QSGRPID
QS_01,CL_CSVAS_EDT_QS,QSMETHOD,Char,200,source.AR_CSVAS_EDT_QS.QSMETHOD,QS.PART_CL_CSVAS_EDT_QS.QSMETHOD,,,,QS_01.CL_CSVAS_EDT_QS.QSMETHOD
QS_01,CL_CSVAS_EDT_QS,QSNAM,Char,200,source.AR_CSVAS_EDT_QS.QSNAM,QS.PART_CL_CSVAS_EDT_QS.QSNAM,,,,QS_01.CL_CSVAS_EDT_QS.QSNAM
QS_01,CL_CSVAS_EDT_QS,QSORRES,Char,200,source.AR_CSVAS_EDT_QS.QSORRES,QS.PART_CL_CSVAS_EDT_QS.QSORRES,,,,QS_01.CL_CSVAS_EDT_QS.QSORRES
QS_01,CL_CSVAS_EDT_QS,QSORRESU,Char,25,source.AR_CSVAS_EDT_QS.QSORRESU,QS.PART_CL_CSVAS_EDT_QS.QSORRESU,,,,QS_01.CL_CSVAS_EDT_QS.QSORRESU
QS_01,CL_CSVAS_EDT_QS,QSSPID,Char,20,source.AR_CSVAS_EDT_QS.QSSPID,QS.PART_CL_CSVAS_EDT_QS.QSSPID,,,,QS_01.CL_CSVAS_EDT_QS.QSSPID
QS_01,CL_CSVAS_EDT_QS,QSSTRESC,Char,200,source.AR_CSVAS_EDT_QS.QSSTRESC,QS.PART_CL_CSVAS_EDT_QS.QSSTRESC,,,,QS_01.CL_CSVAS_EDT_QS.QSSTRESC
QS_01,CL_CSVAS_EDT_QS,QSSTRESN,Num,8,source.AR_CSVAS_EDT_QS.QSSTRESN,QS.PART_CL_CSVAS_EDT_QS.QSSTRESN,,,,QS_01.CL_CSVAS_EDT_QS.QSSTRESN
QS_01,CL_CSVAS_EDT_QS,QSSTRESU,Char,25,source.AR_CSVAS_EDT_QS.QSSTRESU,QS.PART_CL_CSVAS_EDT_QS.QSSTRESU,,,,QS_01.CL_CSVAS_EDT_QS.QSSTRESU
QS_01,CL_CSVAS_EDT_QS,QSTEST,Char,60,source.AR_CSVAS_EDT_QS.QSTEST,QS.PART_CL_CSVAS_EDT_QS.QSTEST,,,,QS_01.CL_CSVAS_EDT_QS.QSTEST
QS_01,CL_CSVAS_EDT_QS,RNGTXTHI,Char,128,source.AR_CSVAS_EDT_QS.RNGTXTHI,QS.PART_CL_CSVAS_EDT_QS.RNGTXTHI,,,,QS_01.CL_CSVAS_EDT_QS.RNGTXTHI
QS_01,CL_CSVAS_EDT_QS,RNGTXTLO,Char,128,source.AR_CSVAS_EDT_QS.RNGTXTLO,QS.PART_CL_CSVAS_EDT_QS.RNGTXTLO,,,,QS_01.CL_CSVAS_EDT_QS.RNGTXTLO
QS_01,CL_CSVAS_EDT_QS,RNGVALHI,Char,200,"lrtrim(left(put(source.AR_CSVAS_EDT_QS.RNGVALHI,""BEST16."")))",QS.PART_CL_CSVAS_EDT_QS.RNGVALHI,,,,QS_01.CL_CSVAS_EDT_QS.RNGVALHI
QS_01,CL_CSVAS_EDT_QS,RNGVALLO,Char,200,"lrtrim(left(put(source.AR_CSVAS_EDT_QS.RNGVALLO,""BEST16."")))",QS.PART_CL_CSVAS_EDT_QS.RNGVALLO,,,,QS_01.CL_CSVAS_EDT_QS.RNGVALLO
QS_01,CL_CSVAS_EDT_QS,TAETORD,Num,8,source.AR_CSVAS_EDT_QS.TAETORD,QS.PART_CL_CSVAS_EDT_QS.TAETORD,,,,QS_01.CL_CSVAS_EDT_QS.TAETORD
QS_01,CL_CSVAS_EDT_QS,VISITDY,Num,8,source.AR_CSVAS_EDT_QS.VISITDY,QS.PART_CL_CSVAS_EDT_QS.VISITDY,,,,QS_01.CL_CSVAS_EDT_QS.VISITDY
QS_01,CL_CSVAS_EDT_QS,VISITNUM,Num,8,source.AR_CSVAS_EDT_QS.VISITNUM,QS.PART_CL_CSVAS_EDT_QS.VISITNUM,,,,QS_01.CL_CSVAS_EDT_QS.VISITNUM
QS_01,CL_CSVAS_EDT_QS,DOMAIN,Char,2,'QS',QS.PART_CL_CSVAS_EDT_QS.DOMAIN,,,,QS_01.CL_CSVAS_EDT_QS.DOMAIN
QS_01,CL_CSVAS_EDT_QS,VERSION,Char,200,intermediate.TX_VER_CSVAS_EDT.QSORR,QS.PART_CL_CSVAS_EDT_QS.VERSION,QSGRPID,,,QS_01.CL_CSVAS_EDT_QS.VERSION
QS_01,CL_EQ5D5_EDT_QS,QSNAM,Char,200,source.AR_EQ5D5_EDT_QS.QSNAM,QS.PART_CL_EQ5D5_EDT_QS.QSNAM,,,,QS_01.CL_EQ5D5_EDT_QS.QSNAM
QS_01,CL_EQ5D5_EDT_QS,QSORRES,Char,200,source.AR_EQ5D5_EDT_QS.QSORRES,QS.PART_CL_EQ5D5_EDT_QS.QSORRES,,,,QS_01.CL_EQ5D5_EDT_QS.QSORRES
QS_01,CL_EQ5D5_EDT_QS,QSSPID,Char,20,source.AR_EQ5D5_EDT_QS.QSSPID,QS.PART_CL_EQ5D5_EDT_QS.QSSPID,,,,QS_01.CL_EQ5D5_EDT_QS.QSSPID
QS_01,CL_EQ5D5_EDT_QS,QSSTRESC,Char,200,source.AR_EQ5D5_EDT_QS.QSSTRESC,QS.PART_CL_EQ5D5_EDT_QS.QSSTRESC,,,,QS_01.CL_EQ5D5_EDT_QS.QSSTRESC
QS_01,CL_EQ5D5_EDT_QS,QSSTRESN,Num,8,source.AR_EQ5D5_EDT_QS.QSSTRESN,QS.PART_CL_EQ5D5_EDT_QS.QSSTRESN,,,,QS_01.CL_EQ5D5_EDT_QS.QSSTRESN
QS_01,CL_EQ5D5_EDT_QS,QSTEST,Char,60,source.AR_EQ5D5_EDT_QS.QSTEST,QS.PART_CL_EQ5D5_EDT_QS.QSTEST,,,,QS_01.CL_EQ5D5_EDT_QS.QSTEST
QS_01,CL_EQ5D5_EDT_QS,RNGTXTHI,Char,128,source.AR_EQ5D5_EDT_QS.RNGTXTHI,QS.PART_CL_EQ5D5_EDT_QS.RNGTXTHI,,,,QS_01.CL_EQ5D5_EDT_QS.RNGTXTHI
QS_01,CL_EQ5D5_EDT_QS,RNGTXTLO,Char,128,source.AR_EQ5D5_EDT_QS.RNGTXTLO,QS.PART_CL_EQ5D5_EDT_QS.RNGTXTLO,,,,QS_01.CL_EQ5D5_EDT_QS.RNGTXTLO
QS_01,CL_EQ5D5_EDT_QS,RNGVALHI,Char,200,"lrtrim(left(put(source.AR_EQ5D5_EDT_QS.RNGVALHI,""BEST16."")))",QS.PART_CL_EQ5D5_EDT_QS.RNGVALHI,,,,QS_01.CL_EQ5D5_EDT_QS.RNGVALHI
QS_01,CL_EQ5D5_EDT_QS,RNGVALLO,Char,200,"lrtrim(left(put(source.AR_EQ5D5_EDT_QS.RNGVALLO,""BEST16."")))",QS.PART_CL_EQ5D5_EDT_QS.RNGVALLO,,,,QS_01.CL_EQ5D5_EDT_QS.RNGVALLO
QS_01,CL_EQ5D5_EDT_QS,TAETORD,Num,8,source.AR_EQ5D5_EDT_QS.TAETORD,QS.PART_CL_EQ5D5_EDT_QS.TAETORD,,,,QS_01.CL_EQ5D5_EDT_QS.TAETORD
QS_01,CL_EQ5D5_EDT_QS,VISITDY,Num,8,source.AR_EQ5D5_EDT_QS.VISITDY,QS.PART_CL_EQ5D5_EDT_QS.VISITDY,,,,QS_01.CL_EQ5D5_EDT_QS.VISITDY
QS_01,CL_EQ5D5_EDT_QS,DOMAIN,Char,2,'QS',QS.PART_CL_EQ5D5_EDT_QS.DOMAIN,,,,QS_01.CL_EQ5D5_EDT_QS.DOMAIN
QS_01,CL_EQ5D5_EDT_QS,STUDYID,Char,12,source.AR_EQ5D5_EDT_QS.STUDYID,QS.PART_CL_EQ5D5_EDT_QS.STUDYID,,,,QS_01.CL_EQ5D5_EDT_QS.STUDYID
QS_01,CL_EQ5D5_EDT_QS,VISIT,Char,60,source.AR_EQ5D5_EDT_QS.VISIT,QS.PART_CL_EQ5D5_EDT_QS.VISIT,,,,QS_01.CL_EQ5D5_EDT_QS.VISIT
QS_01,CL_EQ5D5_EDT_QS,QSSEQ,Num,8,source.AR_EQ5D5_EDT_QS.QSSEQ,QS.PART_CL_EQ5D5_EDT_QS.QSSEQ,,,,QS_01.CL_EQ5D5_EDT_QS.QSSEQ
QS_01,CL_EQ5D5_EDT_QS,QSREFID,Char,40,source.AR_EQ5D5_EDT_QS.QSREFID,QS.PART_CL_EQ5D5_EDT_QS.QSREFID,,,,QS_01.CL_EQ5D5_EDT_QS.QSREFID
QS_01,CL_EQ5D5_EDT_QS,QSTESTCD,Char,8,source.AR_EQ5D5_EDT_QS.QSTESTCD,QS.PART_CL_EQ5D5_EDT_QS.QSTESTCD,,,,QS_01.CL_EQ5D5_EDT_QS.QSTESTCD
QS_01,CL_EQ5D5_EDT_QS,VISITNUM,Num,8,source.AR_EQ5D5_EDT_QS.VISITNUM,QS.PART_CL_EQ5D5_EDT_QS.VISITNUM,,,,QS_01.CL_EQ5D5_EDT_QS.VISITNUM
QS_01,CL_EQ5D5_EDT_QS,USUBJID,Char,30,source.AR_EQ5D5_EDT_QS.USUBJID,QS.PART_CL_EQ5D5_EDT_QS.USUBJID,,,,QS_01.CL_EQ5D5_EDT_QS.USUBJID
QS_01,CL_EQ5D5_EDT_QS,ELEMENT,Char,150,source.AR_EQ5D5_EDT_QS.ELEMENT,QS.PART_CL_EQ5D5_EDT_QS.ELEMENT,,,,QS_01.CL_EQ5D5_EDT_QS.ELEMENT
QS_01,CL_EQ5D5_EDT_QS,EPOCH,Char,40,source.AR_EQ5D5_EDT_QS.EPOCH,QS.PART_CL_EQ5D5_EDT_QS.EPOCH,,,,QS_01.CL_EQ5D5_EDT_QS.EPOCH
QS_01,CL_EQ5D5_EDT_QS,ETCD,Char,8,source.AR_EQ5D5_EDT_QS.ETCD,QS.PART_CL_EQ5D5_EDT_QS.ETCD,,,,QS_01.CL_EQ5D5_EDT_QS.ETCD
QS_01,CL_EQ5D5_EDT_QS,QSBLFL,Char,1,source.AR_EQ5D5_EDT_QS.QSBLFL,QS.PART_CL_EQ5D5_EDT_QS.QSBLFL,,,,QS_01.CL_EQ5D5_EDT_QS.QSBLFL
QS_01,CL_EQ5D5_EDT_QS,QSCAT,Char,120,source.AR_EQ5D5_EDT_QS.QSCAT,QS.PART_CL_EQ5D5_EDT_QS.QSCAT,,,,QS_01.CL_EQ5D5_EDT_QS.QSCAT
QS_01,CL_EQ5D5_EDT_QS,QSDTC,Char,19,source.AR_EQ5D5_EDT_QS.QSDTC,QS.PART_CL_EQ5D5_EDT_QS.QSDTC,,,,QS_01.CL_EQ5D5_EDT_QS.QSDTC
QS_01,CL_EQ5D5_EDT_QS,QSDY,Num,8,source.AR_EQ5D5_EDT_QS.QSDY,QS.PART_CL_EQ5D5_EDT_QS.QSDY,,,,QS_01.CL_EQ5D5_EDT_QS.QSDY
QS_01,CL_EQ5D5_EDT_QS,QSEVAL,Char,60,source.AR_EQ5D5_EDT_QS.QSEVAL,QS.PART_CL_EQ5D5_EDT_QS.QSEVAL,,,,QS_01.CL_EQ5D5_EDT_QS.QSEVAL
QS_01,CL_EQ5D5_EDT_QS,QSEVINTX,Char,60,source.AR_EQ5D5_EDT_QS.QSEVLINX,QS.PART_CL_EQ5D5_EDT_QS.QSEVINTX,,,,QS_01.CL_EQ5D5_EDT_QS.QSEVINTX
QS_01,CL_EQ5D5_EDT_QS,QSGRPID,Char,40,source.AR_EQ5D5_EDT_QS.QSGRPID,QS.PART_CL_EQ5D5_EDT_QS.QSGRPID,,,,QS_01.CL_EQ5D5_EDT_QS.QSGRPID
QS_01,CL_EQ5D5_EDT_QS,QSMETHOD,Char,200,source.AR_EQ5D5_EDT_QS.QSMETHOD,QS.PART_CL_EQ5D5_EDT_QS.QSMETHOD,,,,QS_01.CL_EQ5D5_EDT_QS.QSMETHOD
QS_01,CL_EQ5D5_EDT_QS,VERSION,Char,200,intermediate.TX_VER_EQ5D5_EDT.QSORR,QS.PART_CL_EQ5D5_EDT_QS.VERSION,QSGRPID,,,QS_01.CL_EQ5D5_EDT_QS.VERSION
QS_01,CL_HARQ_EDT_QS,STUDYID,Char,12,source.AR_HARQ_EDT_QS.STUDYID,QS.PART_CL_HARQ_EDT_QS.STUDYID,,,,QS_01.CL_HARQ_EDT_QS.STUDYID
QS_01,CL_HARQ_EDT_QS,VISIT,Char,60,source.AR_HARQ_EDT_QS.VISIT,QS.PART_CL_HARQ_EDT_QS.VISIT,,,,QS_01.CL_HARQ_EDT_QS.VISIT
QS_01,CL_HARQ_EDT_QS,QSSEQ,Num,8,source.AR_HARQ_EDT_QS.QSSEQ,QS.PART_CL_HARQ_EDT_QS.QSSEQ,,,,QS_01.CL_HARQ_EDT_QS.QSSEQ
QS_01,CL_HARQ_EDT_QS,QSREFID,Char,128,source.AR_HARQ_EDT_QS.QSREFID,QS.PART_CL_HARQ_EDT_QS.QSREFID,,,,QS_01.CL_HARQ_EDT_QS.QSREFID
QS_01,CL_HARQ_EDT_QS,QSTESTCD,Char,8,source.AR_HARQ_EDT_QS.QSTESTCD,QS.PART_CL_HARQ_EDT_QS.QSTESTCD,,,,QS_01.CL_HARQ_EDT_QS.QSTESTCD
QS_01,CL_HARQ_EDT_QS,VISITNUM,Num,8,source.AR_HARQ_EDT_QS.VISITNUM,QS.PART_CL_HARQ_EDT_QS.VISITNUM,,,,QS_01.CL_HARQ_EDT_QS.VISITNUM
QS_01,CL_HARQ_EDT_QS,USUBJID,Char,30,source.AR_HARQ_EDT_QS.USUBJID,QS.PART_CL_HARQ_EDT_QS.USUBJID,,,,QS_01.CL_HARQ_EDT_QS.USUBJID
QS_01,CL_HARQ_EDT_QS,ELEMENT,Char,150,source.AR_HARQ_EDT_QS.ELEMENT,QS.PART_CL_HARQ_EDT_QS.ELEMENT,,,,QS_01.CL_HARQ_EDT_QS.ELEMENT
QS_01,CL_HARQ_EDT_QS,EPOCH,Char,40,source.AR_HARQ_EDT_QS.EPOCH,QS.PART_CL_HARQ_EDT_QS.EPOCH,,,,QS_01.CL_HARQ_EDT_QS.EPOCH
QS_01,CL_HARQ_EDT_QS,ETCD,Char,8,source.AR_HARQ_EDT_QS.ETCD,QS.PART_CL_HARQ_EDT_QS.ETCD,,,,QS_01.CL_HARQ_EDT_QS.ETCD
QS_01,CL_HARQ_EDT_QS,QSBLFL,Char,1,source.AR_HARQ_EDT_QS.QSBLFL,QS.PART_CL_HARQ_EDT_QS.QSBLFL,,,,QS_01.CL_HARQ_EDT_QS.QSBLFL
QS_01,CL_HARQ_EDT_QS,QSCAT,Char,128,source.AR_HARQ_EDT_QS.QSCAT,QS.PART_CL_HARQ_EDT_QS.QSCAT,,,,QS_01.CL_HARQ_EDT_QS.QSCAT
QS_01,CL_HARQ_EDT_QS,QSDTC,Char,19,source.AR_HARQ_EDT_QS.QSDTC,QS.PART_CL_HARQ_EDT_QS.QSDTC,,,,QS_01.CL_HARQ_EDT_QS.QSDTC
QS_01,CL_HARQ_EDT_QS,QSDY,Num,8,source.AR_HARQ_EDT_QS.QSDY,QS.PART_CL_HARQ_EDT_QS.QSDY,,,,QS_01.CL_HARQ_EDT_QS.QSDY
QS_01,CL_HARQ_EDT_QS,QSEVAL,Char,200,source.AR_HARQ_EDT_QS.QSEVAL,QS.PART_CL_HARQ_EDT_QS.QSEVAL,,,,QS_01.CL_HARQ_EDT_QS.QSEVAL
QS_01,CL_HARQ_EDT_QS,QSEVLINT,Char,200,source.AR_HARQ_EDT_QS.QSEVLINT,QS.PART_CL_HARQ_EDT_QS.QSEVLINT,,,,QS_01.CL_HARQ_EDT_QS.QSEVLINT
QS_01,CL_HARQ_EDT_QS,QSGRPID,Char,40,source.AR_HARQ_EDT_QS.QSGRPID,QS.PART_CL_HARQ_EDT_QS.QSGRPID,,,,QS_01.CL_HARQ_EDT_QS.QSGRPID
QS_01,CL_HARQ_EDT_QS,QSNAM,Char,200,source.AR_HARQ_EDT_QS.QSNAM,QS.PART_CL_HARQ_EDT_QS.QSNAM,,,,QS_01.CL_HARQ_EDT_QS.QSNAM
QS_01,CL_HARQ_EDT_QS,QSORRES,Char,200,source.AR_HARQ_EDT_QS.QSORRES,QS.PART_CL_HARQ_EDT_QS.QSORRES,,,,QS_01.CL_HARQ_EDT_QS.QSORRES
QS_01,CL_HARQ_EDT_QS,QSSPID,Char,200,source.AR_HARQ_EDT_QS.QSSPID,QS.PART_CL_HARQ_EDT_QS.QSSPID,,,,QS_01.CL_HARQ_EDT_QS.QSSPID
QS_01,CL_HARQ_EDT_QS,QSSTRESC,Char,200,source.AR_HARQ_EDT_QS.QSSTRESC,QS.PART_CL_HARQ_EDT_QS.QSSTRESC,,,,QS_01.CL_HARQ_EDT_QS.QSSTRESC
QS_01,CL_HARQ_EDT_QS,QSSTRESN,Num,8,source.AR_HARQ_EDT_QS.QSSTRESN,QS.PART_CL_HARQ_EDT_QS.QSSTRESN,,,,QS_01.CL_HARQ_EDT_QS.QSSTRESN
QS_01,CL_HARQ_EDT_QS,QSTEST,Char,60,source.AR_HARQ_EDT_QS.QSTEST,QS.PART_CL_HARQ_EDT_QS.QSTEST,,,,QS_01.CL_HARQ_EDT_QS.QSTEST
QS_01,CL_HARQ_EDT_QS,RNGTXTHI,Char,128,source.AR_HARQ_EDT_QS.RNGTXTHI,QS.PART_CL_HARQ_EDT_QS.RNGTXTHI,,,,QS_01.CL_HARQ_EDT_QS.RNGTXTHI
QS_01,CL_HARQ_EDT_QS,RNGTXTLO,Char,128,source.AR_HARQ_EDT_QS.RNGTXTLO,QS.PART_CL_HARQ_EDT_QS.RNGTXTLO,,,,QS_01.CL_HARQ_EDT_QS.RNGTXTLO
QS_01,CL_HARQ_EDT_QS,RNGVALHI,Char,200,"lrtrim(left(put(source.AR_HARQ_EDT_QS.RNGVALHI,""BEST16."")))",QS.PART_CL_HARQ_EDT_QS.RNGVALHI,,,,QS_01.CL_HARQ_EDT_QS.RNGVALHI
QS_01,CL_HARQ_EDT_QS,RNGVALLO,Char,200,"lrtrim(left(put(source.AR_HARQ_EDT_QS.RNGVALLO,""BEST16."")))",QS.PART_CL_HARQ_EDT_QS.RNGVALLO,,,,QS_01.CL_HARQ_EDT_QS.RNGVALLO
QS_01,CL_HARQ_EDT_QS,TAETORD,Num,8,source.AR_HARQ_EDT_QS.TAETORD,QS.PART_CL_HARQ_EDT_QS.TAETORD,,,,QS_01.CL_HARQ_EDT_QS.TAETORD
QS_01,CL_HARQ_EDT_QS,VISITDY,Num,8,source.AR_HARQ_EDT_QS.VISITDY,QS.PART_CL_HARQ_EDT_QS.VISITDY,,,,QS_01.CL_HARQ_EDT_QS.VISITDY
QS_01,CL_HARQ_EDT_QS,DOMAIN,Char,2,'QS',QS.PART_CL_HARQ_EDT_QS.DOMAIN,,,,QS_01.CL_HARQ_EDT_QS.DOMAIN
QS_01,CL_HARQ_EDT_QS,VERSION,Char,200,intermediate.TX_VER_HARQ_EDT.QSORR,QS.PART_CL_HARQ_EDT_QS.VERSION,QSGRPID,,,QS_01.CL_HARQ_EDT_QS.VERSION
QS_01,CL_LCQC_EDT_QS,STUDYID,Char,12,source.AR_LCQC_EDT_QS.STUDYID,QS.PART_CL_LCQC_EDT_QS.STUDYID,,,,QS_01.CL_LCQC_EDT_QS.STUDYID
QS_01,CL_LCQC_EDT_QS,USUBJID,Char,30,source.AR_LCQC_EDT_QS.USUBJID,QS.PART_CL_LCQC_EDT_QS.USUBJID,,,,QS_01.CL_LCQC_EDT_QS.USUBJID
QS_01,CL_LCQC_EDT_QS,VISIT,Char,60,source.AR_LCQC_EDT_QS.VISIT,QS.PART_CL_LCQC_EDT_QS.VISIT,,,,QS_01.CL_LCQC_EDT_QS.VISIT
QS_01,CL_LCQC_EDT_QS,QSSEQ,Num,8,source.AR_LCQC_EDT_QS.QSSEQ,QS.PART_CL_LCQC_EDT_QS.QSSEQ,,,,QS_01.CL_LCQC_EDT_QS.QSSEQ
QS_01,CL_LCQC_EDT_QS,QSREFID,Char,128,source.AR_LCQC_EDT_QS.QSREFID,QS.PART_CL_LCQC_EDT_QS.QSREFID,,,,QS_01.CL_LCQC_EDT_QS.QSREFID
QS_01,CL_LCQC_EDT_QS,QSTESTCD,Char,8,source.AR_LCQC_EDT_QS.QSTESTCD,QS.PART_CL_LCQC_EDT_QS.QSTESTCD,,,,QS_01.CL_LCQC_EDT_QS.QSTESTCD
QS_01,CL_LCQC_EDT_QS,VISITNUM,Num,8,source.AR_LCQC_EDT_QS.VISITNUM,QS.PART_CL_LCQC_EDT_QS.VISITNUM,,,,QS_01.CL_LCQC_EDT_QS.VISITNUM
QS_01,CL_LCQC_EDT_QS,ELEMENT,Char,150,source.AR_LCQC_EDT_QS.ELEMENT,QS.PART_CL_LCQC_EDT_QS.ELEMENT,,,,QS_01.CL_LCQC_EDT_QS.ELEMENT
QS_01,CL_LCQC_EDT_QS,EPOCH,Char,40,source.AR_LCQC_EDT_QS.EPOCH,QS.PART_CL_LCQC_EDT_QS.EPOCH,,,,QS_01.CL_LCQC_EDT_QS.EPOCH
QS_01,CL_LCQC_EDT_QS,ETCD,Char,8,source.AR_LCQC_EDT_QS.ETCD,QS.PART_CL_LCQC_EDT_QS.ETCD,,,,QS_01.CL_LCQC_EDT_QS.ETCD
QS_01,CL_LCQC_EDT_QS,QSBLFL,Char,1,source.AR_LCQC_EDT_QS.QSBLFL,QS.PART_CL_LCQC_EDT_QS.QSBLFL,,,,QS_01.CL_LCQC_EDT_QS.QSBLFL
QS_01,CL_LCQC_EDT_QS,QSCAT,Char,128,source.AR_LCQC_EDT_QS.QSCAT,QS.PART_CL_LCQC_EDT_QS.QSCAT,,,,QS_01.CL_LCQC_EDT_QS.QSCAT
QS_01,CL_LCQC_EDT_QS,QSDTC,Char,19,source.AR_LCQC_EDT_QS.QSDTC,QS.PART_CL_LCQC_EDT_QS.QSDTC,,,,QS_01.CL_LCQC_EDT_QS.QSDTC
QS_01,CL_LCQC_EDT_QS,QSDY,Num,8,source.AR_LCQC_EDT_QS.QSDY,QS.PART_CL_LCQC_EDT_QS.QSDY,,,,QS_01.CL_LCQC_EDT_QS.QSDY
QS_01,CL_LCQC_EDT_QS,QSEVAL,Char,200,source.AR_LCQC_EDT_QS.QSEVAL,QS.PART_CL_LCQC_EDT_QS.QSEVAL,,,,QS_01.CL_LCQC_EDT_QS.QSEVAL
QS_01,CL_LCQC_EDT_QS,QSEVLINT,Char,200,source.AR_LCQC_EDT_QS.QSEVLINT,QS.PART_CL_LCQC_EDT_QS.QSEVLINT,,,,QS_01.CL_LCQC_EDT_QS.QSEVLINT
QS_01,CL_LCQC_EDT_QS,QSGRPID,Char,40,source.AR_LCQC_EDT_QS.QSGRPID,QS.PART_CL_LCQC_EDT_QS.QSGRPID,,,,QS_01.CL_LCQC_EDT_QS.QSGRPID
QS_01,CL_LCQC_EDT_QS,QSNAM,Char,200,source.AR_LCQC_EDT_QS.QSNAM,QS.PART_CL_LCQC_EDT_QS.QSNAM,,,,QS_01.CL_LCQC_EDT_QS.QSNAM
QS_01,CL_LCQC_EDT_QS,QSORRES,Char,200,source.AR_LCQC_EDT_QS.QSORRES,QS.PART_CL_LCQC_EDT_QS.QSORRES,,,,QS_01.CL_LCQC_EDT_QS.QSORRES
QS_01,CL_LCQC_EDT_QS,QSSPID,Char,200,source.AR_LCQC_EDT_QS.QSSPID,QS.PART_CL_LCQC_EDT_QS.QSSPID,,,,QS_01.CL_LCQC_EDT_QS.QSSPID
QS_01,CL_LCQC_EDT_QS,QSSTRESC,Char,200,source.AR_LCQC_EDT_QS.QSSTRESC,QS.PART_CL_LCQC_EDT_QS.QSSTRESC,,,,QS_01.CL_LCQC_EDT_QS.QSSTRESC
QS_01,CL_LCQC_EDT_QS,QSSTRESN,Num,8,source.AR_LCQC_EDT_QS.QSSTRESN,QS.PART_CL_LCQC_EDT_QS.QSSTRESN,,,,QS_01.CL_LCQC_EDT_QS.QSSTRESN
QS_01,CL_LCQC_EDT_QS,QSTEST,Char,60,source.AR_LCQC_EDT_QS.QSTEST,QS.PART_CL_LCQC_EDT_QS.QSTEST,,,,QS_01.CL_LCQC_EDT_QS.QSTEST
QS_01,CL_LCQC_EDT_QS,TAETORD,Num,8,source.AR_LCQC_EDT_QS.TAETORD,QS.PART_CL_LCQC_EDT_QS.TAETORD,,,,QS_01.CL_LCQC_EDT_QS.TAETORD
QS_01,CL_LCQC_EDT_QS,VISITDY,Num,8,source.AR_LCQC_EDT_QS.VISITDY,QS.PART_CL_LCQC_EDT_QS.VISITDY,,,,QS_01.CL_LCQC_EDT_QS.VISITDY
QS_01,CL_LCQC_EDT_QS,DOMAIN,Char,2,'QS',QS.PART_CL_LCQC_EDT_QS.DOMAIN,,,,QS_01.CL_LCQC_EDT_QS.DOMAIN
QS_01,CL_PGI_EDT_QS,STUDYID,Char,12,source.AR_PGI_EDT_QS.STUDYID,QS.PART_CL_PGI_EDT_QS.STUDYID,,,,QS_01.CL_PGI_EDT_QS.STUDYID
QS_01,CL_PGI_EDT_QS,VISIT,Char,60,source.AR_PGI_EDT_QS.VISIT,QS.PART_CL_PGI_EDT_QS.VISIT,,,,QS_01.CL_PGI_EDT_QS.VISIT
QS_01,CL_PGI_EDT_QS,QSSEQ,Num,8,source.AR_PGI_EDT_QS.QSSEQ,QS.PART_CL_PGI_EDT_QS.QSSEQ,,,,QS_01.CL_PGI_EDT_QS.QSSEQ
QS_01,CL_PGI_EDT_QS,QSREFID,Char,128,source.AR_PGI_EDT_QS.QSREFID,QS.PART_CL_PGI_EDT_QS.QSREFID,,,,QS_01.CL_PGI_EDT_QS.QSREFID
QS_01,CL_PGI_EDT_QS,QSTESTCD,Char,8,source.AR_PGI_EDT_QS.QSTESTCD,QS.PART_CL_PGI_EDT_QS.QSTESTCD,,,,QS_01.CL_PGI_EDT_QS.QSTESTCD
QS_01,CL_PGI_EDT_QS,VISITNUM,Num,8,source.AR_PGI_EDT_QS.VISITNUM,QS.PART_CL_PGI_EDT_QS.VISITNUM,,,,QS_01.CL_PGI_EDT_QS.VISITNUM
QS_01,CL_PGI_EDT_QS,USUBJID,Char,30,source.AR_PGI_EDT_QS.USUBJID,QS.PART_CL_PGI_EDT_QS.USUBJID,,,,QS_01.CL_PGI_EDT_QS.USUBJID
QS_01,CL_PGI_EDT_QS,ELEMENT,Char,150,source.AR_PGI_EDT_QS.ELEMENT,QS.PART_CL_PGI_EDT_QS.ELEMENT,,,,QS_01.CL_PGI_EDT_QS.ELEMENT
QS_01,CL_PGI_EDT_QS,EPOCH,Char,40,source.AR_PGI_EDT_QS.EPOCH,QS.PART_CL_PGI_EDT_QS.EPOCH,,,,QS_01.CL_PGI_EDT_QS.EPOCH
QS_01,CL_PGI_EDT_QS,ETCD,Char,8,source.AR_PGI_EDT_QS.ETCD,QS.PART_CL_PGI_EDT_QS.ETCD,,,,QS_01.CL_PGI_EDT_QS.ETCD
QS_01,CL_PGI_EDT_QS,QSBLFL,Char,1,source.AR_PGI_EDT_QS.QSBLFL,QS.PART_CL_PGI_EDT_QS.QSBLFL,,,,QS_01.CL_PGI_EDT_QS.QSBLFL
QS_01,CL_PGI_EDT_QS,QSCAT,Char,128,source.AR_PGI_EDT_QS.QSCAT,QS.PART_CL_PGI_EDT_QS.QSCAT,,,,QS_01.CL_PGI_EDT_QS.QSCAT
QS_01,CL_PGI_EDT_QS,QSDTC,Char,19,source.AR_PGI_EDT_QS.QSDTC,QS.PART_CL_PGI_EDT_QS.QSDTC,,,,QS_01.CL_PGI_EDT_QS.QSDTC
QS_01,CL_PGI_EDT_QS,QSDY,Num,8,source.AR_PGI_EDT_QS.QSDY,QS.PART_CL_PGI_EDT_QS.QSDY,,,,QS_01.CL_PGI_EDT_QS.QSDY
QS_01,CL_PGI_EDT_QS,QSEVAL,Char,200,source.AR_PGI_EDT_QS.QSEVAL,QS.PART_CL_PGI_EDT_QS.QSEVAL,,,,QS_01.CL_PGI_EDT_QS.QSEVAL
QS_01,CL_PGI_EDT_QS,QSEVLINT,Char,200,source.AR_PGI_EDT_QS.QSEVLINT,QS.PART_CL_PGI_EDT_QS.QSEVLINT,,,,QS_01.CL_PGI_EDT_QS.QSEVLINT
QS_01,CL_PGI_EDT_QS,QSEVLINX,Char,60,source.AR_PGI_EDT_QS.QSEVLINX,QS.PART_CL_PGI_EDT_QS.QSEVINTX,,,,QS_01.CL_PGI_EDT_QS.QSEVLINX
QS_01,CL_PGI_EDT_QS,QSGRPID,Char,40,source.AR_PGI_EDT_QS.QSGRPID,QS.PART_CL_PGI_EDT_QS.QSGRPID,,,,QS_01.CL_PGI_EDT_QS.QSGRPID
QS_01,CL_PGI_EDT_QS,QSNAM,Char,200,source.AR_PGI_EDT_QS.QSNAM,QS.PART_CL_PGI_EDT_QS.QSNAM,,,,QS_01.CL_PGI_EDT_QS.QSNAM
QS_01,CL_PGI_EDT_QS,QSORRES,Char,200,source.AR_PGI_EDT_QS.QSORRES,QS.PART_CL_PGI_EDT_QS.QSORRES,,,,QS_01.CL_PGI_EDT_QS.QSORRES
QS_01,CL_PGI_EDT_QS,QSSCAT,Char,160,source.AR_PGI_EDT_QS.QSSCAT,QS.PART_CL_PGI_EDT_QS.QSSCAT,,,,QS_01.CL_PGI_EDT_QS.QSSCAT
QS_01,CL_PGI_EDT_QS,QSSPID,Char,200,source.AR_PGI_EDT_QS.QSSPID,QS.PART_CL_PGI_EDT_QS.QSSPID,,,,QS_01.CL_PGI_EDT_QS.QSSPID
QS_01,CL_PGI_EDT_QS,QSSTRESC,Char,200,source.AR_PGI_EDT_QS.QSSTRESC,QS.PART_CL_PGI_EDT_QS.QSSTRESC,,,,QS_01.CL_PGI_EDT_QS.QSSTRESC
QS_01,CL_PGI_EDT_QS,QSSTRESN,Num,8,source.AR_PGI_EDT_QS.QSSTRESN,QS.PART_CL_PGI_EDT_QS.QSSTRESN,,,,QS_01.CL_PGI_EDT_QS.QSSTRESN
QS_01,CL_PGI_EDT_QS,QSTEST,Char,60,source.AR_PGI_EDT_QS.QSTEST,QS.PART_CL_PGI_EDT_QS.QSTEST,,,,QS_01.CL_PGI_EDT_QS.QSTEST
QS_01,CL_PGI_EDT_QS,TAETORD,Num,8,source.AR_PGI_EDT_QS.TAETORD,QS.PART_CL_PGI_EDT_QS.TAETORD,,,,QS_01.CL_PGI_EDT_QS.TAETORD
QS_01,CL_PGI_EDT_QS,VISITDY,Num,8,source.AR_PGI_EDT_QS.VISITDY,QS.PART_CL_PGI_EDT_QS.VISITDY,,,,QS_01.CL_PGI_EDT_QS.VISITDY
QS_01,CL_PGI_EDT_QS,DOMAIN,Char,2,'QS',QS.PART_CL_PGI_EDT_QS.DOMAIN,,,,QS_01.CL_PGI_EDT_QS.DOMAIN
QS_01,CL_PGI_EDT_QS,VERSION,Char,200,intermediate.TX_VER_PGI_EDT_QS.QSORR,QS.PART_CL_PGI_EDT_QS.VERSION,QSGRPID,,,QS_01.CL_PGI_EDT_QS.VERSION
QS_01,CL_SF12E_EDT_QS,STUDYID,Char,12,source.AR_SF12E_EDT_QS.STUDYID,QS.PART_CL_SF12E_EDT_QS.STUDYID,,,,QS_01.CL_SF12E_EDT_QS.STUDYID
QS_01,CL_SF12E_EDT_QS,VISIT,Char,60,source.AR_SF12E_EDT_QS.VISIT,QS.PART_CL_SF12E_EDT_QS.VISIT,,,,QS_01.CL_SF12E_EDT_QS.VISIT
QS_01,CL_SF12E_EDT_QS,QSSEQ,Num,8,source.AR_SF12E_EDT_QS.QSSEQ,QS.PART_CL_SF12E_EDT_QS.QSSEQ,,,,QS_01.CL_SF12E_EDT_QS.QSSEQ
QS_01,CL_SF12E_EDT_QS,QSREFID,Char,40,source.AR_SF12E_EDT_QS.QSREFID,QS.PART_CL_SF12E_EDT_QS.QSREFID,,,,QS_01.CL_SF12E_EDT_QS.QSREFID
QS_01,CL_SF12E_EDT_QS,QSTESTCD,Char,8,source.AR_SF12E_EDT_QS.QSTESTCD,QS.PART_CL_SF12E_EDT_QS.QSTESTCD,,,,QS_01.CL_SF12E_EDT_QS.QSTESTCD
QS_01,CL_SF12E_EDT_QS,VISITNUM,Num,8,source.AR_SF12E_EDT_QS.VISITNUM,QS.PART_CL_SF12E_EDT_QS.VISITNUM,,,,QS_01.CL_SF12E_EDT_QS.VISITNUM
QS_01,CL_SF12E_EDT_QS,USUBJID,Char,30,source.AR_SF12E_EDT_QS.USUBJID,QS.PART_CL_SF12E_EDT_QS.USUBJID,,,,QS_01.CL_SF12E_EDT_QS.USUBJID
QS_01,CL_SF12E_EDT_QS,ELEMENT,Char,150,source.AR_SF12E_EDT_QS.ELEMENT,QS.PART_CL_SF12E_EDT_QS.ELEMENT,,,,QS_01.CL_SF12E_EDT_QS.ELEMENT
QS_01,CL_SF12E_EDT_QS,EPOCH,Char,40,source.AR_SF12E_EDT_QS.EPOCH,QS.PART_CL_SF12E_EDT_QS.EPOCH,,,,QS_01.CL_SF12E_EDT_QS.EPOCH
QS_01,CL_SF12E_EDT_QS,ETCD,Char,8,source.AR_SF12E_EDT_QS.ETCD,QS.PART_CL_SF12E_EDT_QS.ETCD,,,,QS_01.CL_SF12E_EDT_QS.ETCD
QS_01,CL_SF12E_EDT_QS,QSBLFL,Char,1,source.AR_SF12E_EDT_QS.QSBLFL,QS.PART_CL_SF12E_EDT_QS.QSBLFL,,,,QS_01.CL_SF12E_EDT_QS.QSBLFL
QS_01,CL_SF12E_EDT_QS,QSCAT,Char,128,source.AR_SF12E_EDT_QS.QSCAT,QS.PART_CL_SF12E_EDT_QS.QSCAT,,,,QS_01.CL_SF12E_EDT_QS.QSCAT
QS_01,CL_SF12E_EDT_QS,QSDTC,Char,19,source.AR_SF12E_EDT_QS.QSDTC,QS.PART_CL_SF12E_EDT_QS.QSDTC,,,,QS_01.CL_SF12E_EDT_QS.QSDTC
QS_01,CL_SF12E_EDT_QS,QSDY,Num,8,source.AR_SF12E_EDT_QS.QSDY,QS.PART_CL_SF12E_EDT_QS.QSDY,,,,QS_01.CL_SF12E_EDT_QS.QSDY
QS_01,CL_SF12E_EDT_QS,QSEVAL,Char,200,source.AR_SF12E_EDT_QS.QSEVAL,QS.PART_CL_SF12E_EDT_QS.QSEVAL,,,,QS_01.CL_SF12E_EDT_QS.QSEVAL
QS_01,CL_SF12E_EDT_QS,QSEVLINT,Char,200,source.AR_SF12E_EDT_QS.QSEVLINT,QS.PART_CL_SF12E_EDT_QS.QSEVLINT,,,,QS_01.CL_SF12E_EDT_QS.QSEVLINT
QS_01,CL_SF12E_EDT_QS,QSGRPID,Char,40,source.AR_SF12E_EDT_QS.QSGRPID,QS.PART_CL_SF12E_EDT_QS.QSGRPID,,,,QS_01.CL_SF12E_EDT_QS.QSGRPID
QS_01,CL_SF12E_EDT_QS,QSNAM,Char,200,source.AR_SF12E_EDT_QS.QSNAM,QS.PART_CL_SF12E_EDT_QS.QSNAM,,,,QS_01.CL_SF12E_EDT_QS.QSNAM
QS_01,CL_SF12E_EDT_QS,QSORRES,Char,200,source.AR_SF12E_EDT_QS.QSORRES,QS.PART_CL_SF12E_EDT_QS.QSORRES,,,,QS_01.CL_SF12E_EDT_QS.QSORRES
QS_01,CL_SF12E_EDT_QS,QSSCAT,Char,160,source.AR_SF12E_EDT_QS.QSSCAT,QS.PART_CL_SF12E_EDT_QS.QSSCAT,,,,QS_01.CL_SF12E_EDT_QS.QSSCAT
QS_01,CL_SF12E_EDT_QS,QSSPID,Char,20,source.AR_SF12E_EDT_QS.QSSPID,QS.PART_CL_SF12E_EDT_QS.QSSPID,,,,QS_01.CL_SF12E_EDT_QS.QSSPID
QS_01,CL_SF12E_EDT_QS,QSSTRESC,Char,200,source.AR_SF12E_EDT_QS.QSSTRESC,QS.PART_CL_SF12E_EDT_QS.QSSTRESC,,,,QS_01.CL_SF12E_EDT_QS.QSSTRESC
QS_01,CL_SF12E_EDT_QS,QSSTRESN,Num,8,source.AR_SF12E_EDT_QS.QSSTRESN,QS.PART_CL_SF12E_EDT_QS.QSSTRESN,,,,QS_01.CL_SF12E_EDT_QS.QSSTRESN
QS_01,CL_SF12E_EDT_QS,QSTEST,Char,60,source.AR_SF12E_EDT_QS.QSTEST,QS.PART_CL_SF12E_EDT_QS.QSTEST,,,,QS_01.CL_SF12E_EDT_QS.QSTEST
QS_01,CL_SF12E_EDT_QS,TAETORD,Num,8,source.AR_SF12E_EDT_QS.TAETORD,QS.PART_CL_SF12E_EDT_QS.TAETORD,,,,QS_01.CL_SF12E_EDT_QS.TAETORD
QS_01,CL_SF12E_EDT_QS,VISITDY,Num,8,source.AR_SF12E_EDT_QS.VISITDY,QS.PART_CL_SF12E_EDT_QS.VISITDY,,,,QS_01.CL_SF12E_EDT_QS.VISITDY
QS_01,CL_SF12E_EDT_QS,DOMAIN,Char,2,'QS',QS.PART_CL_SF12E_EDT_QS.DOMAIN,,,,QS_01.CL_SF12E_EDT_QS.DOMAIN
QS_01,CL_SF12E_EDT_QS,VERSION,Char,30,intermediate.TX_VER_SF12E.QSORR,QS.PART_CL_SF12E_EDT_QS.VERSION,QSGRPID,,,QS_01.CL_SF12E_EDT_QS.VERSION
LB_01,MER_LB,,,0,,,,,,LB_01.MER_LB.
LB_01,CL_SLAB_LB,LBSTRESC,Char,80,source.AR_SLAB_LB.LBSTRESC,LB.PART_SLAB_LB.LBSTRESC,,,,LB_01.CL_SLAB_LB.LBSTRESC
LB_01,CL_SLAB_LB,LBSTRESN,Num,8,source.AR_SLAB_LB.LBSTRESN,LB.PART_SLAB_LB.LBSTRESN,,,,LB_01.CL_SLAB_LB.LBSTRESN
LB_01,CL_SLAB_LB,LBSTRESU,Char,35,source.AR_SLAB_LB.LBSTRESU,LB.PART_SLAB_LB.LBSTRESU,,,,LB_01.CL_SLAB_LB.LBSTRESU
LB_01,CL_SLAB_LB,LBTEST,Char,60,source.AR_SLAB_LB.LBTEST,LB.PART_SLAB_LB.LBTEST,,,,LB_01.CL_SLAB_LB.LBTEST
LB_01,CL_SLAB_LB,LBTESTCD,Char,8,source.AR_SLAB_LB.LBTESTCD,LB.PART_SLAB_LB.LBTESTCD,,,,LB_01.CL_SLAB_LB.LBTESTCD
LB_01,CL_SLAB_LB,LBTOXGR,Char,2,source.AR_SLAB_LB.LBTOXGR,LB.PART_SLAB_LB.LBTOXGR,,,,LB_01.CL_SLAB_LB.LBTOXGR
LB_01,CL_SLAB_LB,LBLOC,Char,40,source.AR_SLAB_LB.SPECTLOC,LB.PART_SLAB_LB.LBLOC,,,,LB_01.CL_SLAB_LB.LBLOC
LB_01,CL_SLAB_LB,TAETORD,Num,8,source.AR_SLAB_LB.TAETORD,LB.PART_SLAB_LB.TAETORD,,,,LB_01.CL_SLAB_LB.TAETORD
LB_01,CL_SLAB_LB,VISITDY,Num,8,source.AR_SLAB_LB.VISITDY,LB.PART_SLAB_LB.VISITDY,,,,LB_01.CL_SLAB_LB.VISITDY
LB_01,CL_SLAB_LB,DOMAIN,Char,2,'LB',LB.PART_SLAB_LB.DOMAIN,,,,LB_01.CL_SLAB_LB.DOMAIN
LB_01,CL_SLAB_LB,ELEMENT,Char,150,source.AR_SLAB_LB.ELEMENT,LB.PART_SLAB_LB.ELEMENT,,,,LB_01.CL_SLAB_LB.ELEMENT
LB_01,CL_SLAB_LB,ETCD,Char,8,source.AR_SLAB_LB.ETCD,LB.PART_SLAB_LB.ETCD,,,,LB_01.CL_SLAB_LB.ETCD
LB_01,CL_SLAB_LB,LBANMETH,Char,100,source.AR_SLAB_LB.LBANMETH,LB.PART_SLAB_LB.LBANMETH,,,,LB_01.CL_SLAB_LB.LBANMETH
LB_01,CL_SLAB_LB,LBCONC,Char,80,source.AR_SLAB_LB.LBCONC,LB.PART_SLAB_LB.LBCONC,,,,LB_01.CL_SLAB_LB.LBCONC
LB_01,CL_SLAB_LB,LBCONN,Char,200,"lrtrim(left(put(source.AR_SLAB_LB.LBCONN,""BEST16."")))",LB.PART_SLAB_LB.LBCONN,,,,LB_01.CL_SLAB_LB.LBCONN
LB_01,CL_SLAB_LB,LBCONRHI,Char,200,"lrtrim(left(put(source.AR_SLAB_LB.LBCONRHI,""BEST16."")))",LB.PART_SLAB_LB.LBCONRHI,,,,LB_01.CL_SLAB_LB.LBCONRHI
LB_01,CL_SLAB_LB,LBCONRLO,Char,200,"lrtrim(left(put(source.AR_SLAB_LB.LBCONRLO,""BEST16."")))",LB.PART_SLAB_LB.LBCONRLO,,,,LB_01.CL_SLAB_LB.LBCONRLO
LB_01,CL_SLAB_LB,LBCONU,Char,20,source.AR_SLAB_LB.LBCONU,LB.PART_SLAB_LB.LBCONU,,,,LB_01.CL_SLAB_LB.LBCONU
LB_01,CL_SLAB_LB,LBTESTV,Char,60,source.AR_SLAB_LB.LBTESTV,LB.PART_SLAB_LB.LBTESTV,,,,LB_01.CL_SLAB_LB.LBTESTV
LB_01,CL_SLAB_LB,LBVORESU,Char,80,source.AR_SLAB_LB.LBVORESU,LB.PART_SLAB_LB.LBVORESU,,,,LB_01.CL_SLAB_LB.LBVORESU
LB_01,CL_SLAB_LB,STUDYID,Char,12,source.AR_SLAB_LB.STUDYID,LB.PART_SLAB_LB.STUDYID,,,,LB_01.CL_SLAB_LB.STUDYID
LB_01,CL_SLAB_LB,USUBJID,Char,30,source.AR_SLAB_LB.USUBJID,LB.PART_SLAB_LB.USUBJID,,,,LB_01.CL_SLAB_LB.USUBJID
LB_01,CL_SLAB_LB,VISIT,Char,60,source.AR_SLAB_LB.VISIT,LB.PART_SLAB_LB.VISIT,,,,LB_01.CL_SLAB_LB.VISIT
LB_01,CL_SLAB_LB,LBSEQ,Num,8,source.AR_SLAB_LB.LBSEQ,LB.PART_SLAB_LB.LBSEQ,,,,LB_01.CL_SLAB_LB.LBSEQ
LB_01,CL_SLAB_LB,LBGRPID,Char,40,source.AR_SLAB_LB.LBGRPID,LB.PART_SLAB_LB.LBGRPID,,,,LB_01.CL_SLAB_LB.LBGRPID
LB_01,CL_SLAB_LB,LBSPID,Char,20,source.AR_SLAB_LB.LBSPID,LB.PART_SLAB_LB.LBSPID,,,,LB_01.CL_SLAB_LB.LBSPID
LB_01,CL_SLAB_LB,VISITNUM,Num,8,source.AR_SLAB_LB.VISITNUM,LB.PART_SLAB_LB.VISITNUM,,,,LB_01.CL_SLAB_LB.VISITNUM
LB_01,CL_SLAB_LB,EPOCH,Char,40,source.AR_SLAB_LB.EPOCH,LB.PART_SLAB_LB.EPOCH,,,,LB_01.CL_SLAB_LB.EPOCH
LB_01,CL_SLAB_LB,LBBLFL,Char,1,source.AR_SLAB_LB.LBBLFL,LB.PART_SLAB_LB.LBBLFL,,,,LB_01.CL_SLAB_LB.LBBLFL
LB_01,CL_SLAB_LB,LBCAT,Char,80,source.AR_SLAB_LB.LBCAT,LB.PART_SLAB_LB.LBCAT,,,,LB_01.CL_SLAB_LB.LBCAT
LB_01,CL_SLAB_LB,LBDTC,Char,19,source.AR_SLAB_LB.LBDTC,LB.PART_SLAB_LB.LBDTC,,,,LB_01.CL_SLAB_LB.LBDTC
LB_01,CL_SLAB_LB,LBDY,Num,8,source.AR_SLAB_LB.LBDY,LB.PART_SLAB_LB.LBDY,,,,LB_01.CL_SLAB_LB.LBDY
LB_01,CL_SLAB_LB,LBFAST,Char,2,source.AR_SLAB_LB.LBFAST,LB.PART_SLAB_LB.LBFAST,,,,LB_01.CL_SLAB_LB.LBFAST
LB_01,CL_SLAB_LB,LBNRIND,Char,40,source.AR_SLAB_LB.LBNRIND,LB.PART_SLAB_LB.LBNRIND,,,,LB_01.CL_SLAB_LB.LBNRIND
LB_01,CL_SLAB_LB,LBORNRHI,Char,40,lrtrim(source.AR_SLAB_LB.LBORNRHI),LB.PART_SLAB_LB.LBORNRHI,,,,LB_01.CL_SLAB_LB.LBORNRHI
LB_01,CL_SLAB_LB,LBORNRLO,Char,40,lrtrim(source.AR_SLAB_LB.LBORNRLO),LB.PART_SLAB_LB.LBORNRLO,,,,LB_01.CL_SLAB_LB.LBORNRLO
LB_01,CL_SLAB_LB,LBORRES,Char,200,source.AR_SLAB_LB.LBORRES,LB.PART_SLAB_LB.LBORRES,,,,LB_01.CL_SLAB_LB.LBORRES
LB_01,CL_SLAB_LB,LBORRESU,Char,25,source.AR_SLAB_LB.LBORRESU,LB.PART_SLAB_LB.LBORRESU,,,,LB_01.CL_SLAB_LB.LBORRESU
LB_01,CL_SLAB_LB,LBSPEC,Char,40,source.AR_SLAB_LB.LBSPEC,LB.PART_SLAB_LB.LBSPEC,,,,LB_01.CL_SLAB_LB.LBSPEC
LB_01,CL_SLAB_LB,LBSTNRHI,Num,8,source.AR_SLAB_LB.LBSTNRHI,LB.PART_SLAB_LB.LBSTNRHI,,,,LB_01.CL_SLAB_LB.LBSTNRHI
LB_01,CL_SLAB_LB,LBSTNRLO,Num,8,source.AR_SLAB_LB.LBSTNRLO,LB.PART_SLAB_LB.LBSTNRLO,,,,LB_01.CL_SLAB_LB.LBSTNRLO
LB_01,CL_SLAB_LB,STDYRLEP,Char,200,"lrtrim(left(put(source.AR_SLAB_LB.STDYRLEP ,""BEST16."")))",LB.PART_SLAB_LB.STDYRLEP,,,,LB_01.CL_SLAB_LB.STDYRLEP
LB_01,CL_SLAB_LB,LBMETHOD,Char,200,"if(source.AR_SLAB_LB.LBORRESU in('/HPF' , '/LPF')) 'MICROSCOPY'",LB.PART_SLAB_LB.LBMETHOD,,,,LB_01.CL_SLAB_LB.LBMETHOD
LB_01,CL_UA_LB,STUDYID,Char,12,source.AR_UA_LB.STUDYID,LB.PART_UA_LB.STUDYID,,,,LB_01.CL_UA_LB.STUDYID
LB_01,CL_UA_LB,USUBJID,Char,30,source.AR_UA_LB.USUBJID,LB.PART_UA_LB.USUBJID,,,,LB_01.CL_UA_LB.USUBJID
LB_01,CL_UA_LB,VISIT,Char,60,source.AR_UA_LB.VISIT,LB.PART_UA_LB.VISIT,,,,LB_01.CL_UA_LB.VISIT
LB_01,CL_UA_LB,LBSEQ,Num,8,source.AR_UA_LB.LBSEQ,LB.PART_UA_LB.LBSEQ,,,,LB_01.CL_UA_LB.LBSEQ
LB_01,CL_UA_LB,LBGRPID,Char,40,source.AR_UA_LB.LBGRPID,LB.PART_UA_LB.LBGRPID,,,,LB_01.CL_UA_LB.LBGRPID
LB_01,CL_UA_LB,VISITNUM,Num,8,source.AR_UA_LB.VISITNUM,LB.PART_UA_LB.VISITNUM,,,,LB_01.CL_UA_LB.VISITNUM
LB_01,CL_UA_LB,EPOCH,Char,40,source.AR_UA_LB.EPOCH,LB.PART_UA_LB.EPOCH,,,,LB_01.CL_UA_LB.EPOCH
LB_01,CL_UA_LB,LBBLFL,Char,1,source.AR_UA_LB.LBBLFL,LB.PART_UA_LB.LBBLFL,,,,LB_01.CL_UA_LB.LBBLFL
LB_01,CL_UA_LB,LBCAT,Char,80,source.AR_UA_LB.LBCAT,LB.PART_UA_LB.LBCAT,,,,LB_01.CL_UA_LB.LBCAT
LB_01,CL_UA_LB,LBDTC,Char,19,source.AR_UA_LB.LBDTC,LB.PART_UA_LB.LBDTC,,,,LB_01.CL_UA_LB.LBDTC
LB_01,CL_UA_LB,LBDY,Num,8,source.AR_UA_LB.LBDY,LB.PART_UA_LB.LBDY,,,,LB_01.CL_UA_LB.LBDY
LB_01,CL_UA_LB,LBNRIND,Char,40,source.AR_UA_LB.LBNRIND,LB.PART_UA_LB.LBNRIND,,,,LB_01.CL_UA_LB.LBNRIND
LB_01,CL_UA_LB,LBORNRHI,Char,40,lrtrim(source.AR_UA_LB.LBORNRHI),LB.PART_UA_LB.LBORNRHI,,,,LB_01.CL_UA_LB.LBORNRHI
LB_01,CL_UA_LB,LBORNRLO,Char,40,lrtrim(source.AR_UA_LB.LBORNRLO),LB.PART_UA_LB.LBORNRLO,,,,LB_01.CL_UA_LB.LBORNRLO
LB_01,CL_UA_LB,LBORRES,Char,200,source.AR_UA_LB.LBORRES,LB.PART_UA_LB.LBORRES,,,,LB_01.CL_UA_LB.LBORRES
LB_01,CL_UA_LB,LBORRESU,Char,25,"if (source.AR_UA_LB.LBORRESU = ""/uL"" ) ""10^6/L"" else source.AR_UA_LB.LBORRESU",LB.PART_UA_LB.LBORRESU,,,,LB_01.CL_UA_LB.LBORRESU
LB_01,CL_UA_LB,LBSPEC,Char,40,source.AR_UA_LB.LBSPEC,LB.PART_UA_LB.LBSPEC,,,,LB_01.CL_UA_LB.LBSPEC
LB_01,CL_UA_LB,LBSPID,Char,20,source.AR_UA_LB.LBSPID,LB.PART_UA_LB.LBSPID,,,,LB_01.CL_UA_LB.LBSPID
LB_01,CL_UA_LB,LBSTNRHI,Num,8,source.AR_UA_LB.LBSTNRHI,LB.PART_UA_LB.LBSTNRHI,,,,LB_01.CL_UA_LB.LBSTNRHI
LB_01,CL_UA_LB,LBSTNRLO,Num,8,source.AR_UA_LB.LBSTNRLO,LB.PART_UA_LB.LBSTNRLO,,,,LB_01.CL_UA_LB.LBSTNRLO
LB_01,CL_UA_LB,LBSTRESC,Char,80,source.AR_UA_LB.LBSTRESC,LB.PART_UA_LB.LBSTRESC,,,,LB_01.CL_UA_LB.LBSTRESC
LB_01,CL_UA_LB,LBSTRESN,Num,8,source.AR_UA_LB.LBSTRESN,LB.PART_UA_LB.LBSTRESN,,,,LB_01.CL_UA_LB.LBSTRESN
LB_01,CL_UA_LB,LBSTRESU,Char,35,"if (source.AR_UA_LB.LBSTRESU = ""/uL"" ) ""10^6/L"" else source.AR_UA_LB.LBSTRESU",LB.PART_UA_LB.LBSTRESU,,,,LB_01.CL_UA_LB.LBSTRESU
LB_01,CL_UA_LB,LBTEST,Char,60,source.AR_UA_LB.LBTEST,LB.PART_UA_LB.LBTEST,,,,LB_01.CL_UA_LB.LBTEST
LB_01,CL_UA_LB,LBTESTCD,Char,8,source.AR_UA_LB.LBTESTCD,LB.PART_UA_LB.LBTESTCD,,,,LB_01.CL_UA_LB.LBTESTCD
LB_01,CL_UA_LB,LBTOXGR,Char,2,source.AR_UA_LB.LBTOXGR,LB.PART_UA_LB.LBTOXGR,,,,LB_01.CL_UA_LB.LBTOXGR
LB_01,CL_UA_LB,LBTPT,Char,80,source.AR_UA_LB.LBTPT,LB.PART_UA_LB.LBTPT,,,,LB_01.CL_UA_LB.LBTPT
LB_01,CL_UA_LB,LBTPTNUM,Num,8,source.AR_UA_LB.LBTPTNUM,LB.PART_UA_LB.LBTPTNUM,,,,LB_01.CL_UA_LB.LBTPTNUM
LB_01,CL_UA_LB,TAETORD,Num,8,source.AR_UA_LB.TAETORD,LB.PART_UA_LB.TAETORD,,,,LB_01.CL_UA_LB.TAETORD
LB_01,CL_UA_LB,VISITDY,Num,8,source.AR_UA_LB.VISITDY,LB.PART_UA_LB.VISITDY,,,,LB_01.CL_UA_LB.VISITDY
LB_01,CL_UA_LB,DOMAIN,Char,2,'LB',LB.PART_UA_LB.DOMAIN,,,,LB_01.CL_UA_LB.DOMAIN
LB_01,CL_UA_LB,ELEMENT,Char,150,source.AR_UA_LB.ELEMENT,LB.PART_UA_LB.ELEMENT,,,,LB_01.CL_UA_LB.ELEMENT
LB_01,CL_UA_LB,ETCD,Char,8,source.AR_UA_LB.ETCD,LB.PART_UA_LB.ETCD,,,,LB_01.CL_UA_LB.ETCD
LB_01,CL_UA_LB,LBCONC,Char,80,source.AR_UA_LB.LBCONC,LB.PART_UA_LB.LBCONC,,,,LB_01.CL_UA_LB.LBCONC
LB_01,CL_UA_LB,LBCONN,Char,200,"lrtrim(left(put(source.AR_UA_LB.LBCONN,""BEST16."")))",LB.PART_UA_LB.LBCONN,,,,LB_01.CL_UA_LB.LBCONN
LB_01,CL_UA_LB,LBCONRHI,Char,200,"lrtrim(left(put(source.AR_UA_LB.LBCONRHI,""BEST16."")))",LB.PART_UA_LB.LBCONRHI,,,,LB_01.CL_UA_LB.LBCONRHI
LB_01,CL_UA_LB,LBCONRLO,Char,200,"lrtrim(left(put(source.AR_UA_LB.LBCONRLO,""BEST16."")))",LB.PART_UA_LB.LBCONRLO,,,,LB_01.CL_UA_LB.LBCONRLO
LB_01,CL_UA_LB,LBCONU,Char,20,"if (source.AR_UA_LB.LBCONU = ""/uL"" ) ""10^6/L"" else source.AR_UA_LB.LBCONU",LB.PART_UA_LB.LBCONU,,,,LB_01.CL_UA_LB.LBCONU
LB_01,CL_UA_LB,LBNROPER,Char,2,source.AR_UA_LB.LBNROPER,LB.PART_UA_LB.LBNROPER,,,,LB_01.CL_UA_LB.LBNROPER
LB_01,CL_UA_LB,LBVORESU,Char,80,source.AR_UA_LB.LBVORESU,LB.PART_UA_LB.LBVORESU,,,,LB_01.CL_UA_LB.LBVORESU
LB_01,CL_UA_LB,LBSIFL,Char,1,source.AR_UA_LB.LBSIFL,LB.PART_UA_LB.LBSIFL,,,,LB_01.CL_UA_LB.LBSIFL
LB_01,CL_UA_LB,STDYRLEP,Char,200,"lrtrim(left(put(source.AR_UA_LB.STDYRLEP ,""BEST16."")))",LB.PART_UA_LB.STDYRLEP,,,,LB_01.CL_UA_LB.STDYRLEP
LB_01,CL_UA_LB,LBMETHOD,Char,200,"if(source.AR_UA_LB.LBORRESU in('/HPF' , '/LPF')) 'MICROSCOPY'",LB.PART_UA_LB.LBMETHOD,,,,LB_01.CL_UA_LB.LBMETHOD
DD_01,CL_DEATH_CE,DDTESTCD,Char,200,intermediate.NOR_DD.DDTESTCD,DD.PART_CL_DEATH_CE.DDTESTCD,,,,DD_01.CL_DEATH_CE.DDTESTCD
DD_01,CL_DEATH_CE,DDTEST,Char,200,intermediate.NOR_DD.DDTEST,DD.PART_CL_DEATH_CE.DDTEST,,,,DD_01.CL_DEATH_CE.DDTEST
DD_01,CL_DEATH_CE,DDORRES,Char,200,intermediate.NOR_DD.DDORRES,DD.PART_CL_DEATH_CE.DDORRES,,,,DD_01.CL_DEATH_CE.DDORRES
DD_01,CL_DEATH_CE,DDSTRESC,Char,200,intermediate.NOR_DD.DDSTRESC,DD.PART_CL_DEATH_CE.DDSTRESC,,,,DD_01.CL_DEATH_CE.DDSTRESC
DD_01,CL_DEATH_CE,DDSEQ,Num,8,intermediate.NOR_DD.DDSEQ,DD.PART_CL_DEATH_CE.DDSEQ,,,,DD_01.CL_DEATH_CE.DDSEQ
DD_01,CL_DEATH_CE,STUDYID,Char,12,source.AR_DEATH_CE.STUDYID,DD.PART_CL_DEATH_CE.STUDYID,,,,DD_01.CL_DEATH_CE.STUDYID
DD_01,CL_DEATH_CE,USUBJID,Char,30,source.AR_DEATH_CE.USUBJID,DD.PART_CL_DEATH_CE.USUBJID,,,,DD_01.CL_DEATH_CE.USUBJID
DD_01,CL_DEATH_CE,VISIT,Char,60,source.AR_DEATH_CE.VISIT,DD.PART_CL_DEATH_CE.VISIT,,,,DD_01.CL_DEATH_CE.VISIT
DD_01,CL_DEATH_CE,DDGRPID,Char,40,source.AR_DEATH_CE.CEGRPID,DD.PART_CL_DEATH_CE.DDGRPID,,,,DD_01.CL_DEATH_CE.DDGRPID
DD_01,CL_DEATH_CE,VISITNUM,Num,8,source.AR_DEATH_CE.VISITNUM,DD.PART_CL_DEATH_CE.VISITNUM,,,,DD_01.CL_DEATH_CE.VISITNUM
DD_01,CL_DEATH_CE,DDCAT,Char,80,source.AR_DEATH_CE.CECAT,DD.PART_CL_DEATH_CE.DDCAT,,,,DD_01.CL_DEATH_CE.DDCAT
DD_01,CL_DEATH_CE,ELEMENT,Char,150,source.AR_DEATH_CE.ELEMENT,DD.PART_CL_DEATH_CE.ELEMENT,,,,DD_01.CL_DEATH_CE.ELEMENT
DD_01,CL_DEATH_CE,EPOCH,Char,40,source.AR_DEATH_CE.EPOCH,DD.PART_CL_DEATH_CE.EPOCH,,,,DD_01.CL_DEATH_CE.EPOCH
DD_01,CL_DEATH_CE,TAETORD,Num,8,source.AR_DEATH_CE.TAETORD,DD.PART_CL_DEATH_CE.TAETORD,,,,DD_01.CL_DEATH_CE.TAETORD
DD_01,CL_DEATH_CE,ETCD,Char,8,source.AR_DEATH_CE.ETCD,DD.PART_CL_DEATH_CE.ETCD,,,,DD_01.CL_DEATH_CE.ETCD
DD_01,CL_DEATH_CE,DOMAIN,Char,2,'DD',DD.PART_CL_DEATH_CE.DOMAIN,,,,DD_01.CL_DEATH_CE.DOMAIN
DD_01,CL_DEATH_CE,DDRESCAT,Char,200,source.AR_DEATH_CE.CESCAT,DD.PART_CL_DEATH_CE.DDRESCAT,,,,DD_01.CL_DEATH_CE.DDRESCAT
DD_01,CL_DEATH_CE,DDDY,Num,8,source.AR_DEATH_CE.CESTDY,DD.PART_CL_DEATH_CE.DDDY,,,,DD_01.CL_DEATH_CE.DDDY
DD_01,CL_DEATH_CE,DTHRCIND,Char,200,source.AR_DEATH_CE.CEREL,DD.PART_CL_DEATH_CE.DTHRCIND,,,,DD_01.CL_DEATH_CE.DTHRCIND
DD_01,CL_DEATH_CE,DDDTC,Char,19,source.AR_DEATH_CE.CESTDTC,DD.PART_CL_DEATH_CE.DDDTC,,,,DD_01.CL_DEATH_CE.DDDTC
DD_01,CL_DEATH_CE,DDSPID,Char,200,intermediate.NOR_DD.DDSPID,DD.PART_CL_DEATH_CE.DDSPID,,,,DD_01.CL_DEATH_CE.DDSPID
DD_01,NOR_DD,DDTESTCD,Char,200,"normalize(""ADJREFID"",""AUTOPIND"",""DTHCOMNT"",""DTHSUD"",""DTHWITN"",""PRCDTH"",""SRCNOTF"",""SRCNOTF"",""SRCNOTF"",""SRCNOTF"",""SRCNOTF"")",,,,,DD_01.NOR_DD.DDTESTCD
DD_01,NOR_DD,DDTEST,Char,200,"normalize(""Adjudication Reference ID"",""Autopsy Indicator"",""Death Comments"",""Death Sudden Indicator"",""Death Witnessed Indicator"",""Primary Cause of Death"",""Source of Notification"",""Source of Notification"",""Source of Notification"",""Source of Notification"",""Source of Notification"")",,,,,DD_01.NOR_DD.DDTEST
DD_01,NOR_DD,DDORRES,Char,200,"normalize(source.AR_DEATH_CE.ADJREFID,source.AR_DEATH_CE.AUTCOMP,source.AR_DEATH_CE.DTHCOMNT,source.AR_DEATH_CE.DTHSUD,source.AR_DEATH_CE.DTHWITN,source.AR_DEATH_CE.CETERM,source.AR_DEATH_CE.CESOUCDC,source.AR_DEATH_CE.CESOUCDF,source.AR_DEATH_CE.CESOUCDH,source.AR_DEATH_CE.CESOUCDI,source.AR_DEATH_CE.CESOUCDO)",,,,,DD_01.NOR_DD.DDORRES
DD_01,NOR_DD,DDSTRESC,Char,200,"normalize(source.AR_DEATH_CE.ADJREFID,source.AR_DEATH_CE.AUTCOMP,source.AR_DEATH_CE.DTHCOMNT,source.AR_DEATH_CE.DTHSUD,source.AR_DEATH_CE.DTHWITN,source.AR_DEATH_CE.CEDECOD,source.AR_DEATH_CE.CESOUCDC,source.AR_DEATH_CE.CESOUCDF,source.AR_DEATH_CE.CESOUCDH,source.AR_DEATH_CE.CESOUCDI,source.AR_DEATH_CE.CESOUCDO)",,,,,DD_01.NOR_DD.DDSTRESC
DD_01,NOR_DD,DDSEQ,Num,8,"normalize(source.AR_DEATH_CE.CESEQ+10000,source.AR_DEATH_CE.CESEQ+20000,source.AR_DEATH_CE.CESEQ+30000,source.AR_DEATH_CE.CESEQ+40000,source.AR_DEATH_CE.CESEQ+50000,source.AR_DEATH_CE.CESEQ+60000,source.AR_DEATH_CE.CESEQ+70000,source.AR_DEATH_CE.CESEQ+80000,source.AR_DEATH_CE.CESEQ+90000,source.AR_DEATH_CE.CESEQ+100000,source.AR_DEATH_CE.CESEQ+110000)",,,,,DD_01.NOR_DD.DDSEQ
DD_01,NOR_DD,DDSPID,Char,200,"normalize("""","""","""","""","""","""",""101"",""104"",""102"",""103"",""105"")",,,,,DD_01.NOR_DD.DDSPID
DD_01,MER_DD,,,0,,,,,,DD_01.MER_DD.
DD_01,CL_DAR_CE,DDTESTCD,Char,200,'AUTDCDTH',DD.PART_CL_DAR_CE.DDTESTCD,,,,DD_01.CL_DAR_CE.DDTESTCD
DD_01,CL_DAR_CE,DDTEST,Char,200,'Autopsy Determined Cause of Death',DD.PART_CL_DAR_CE.DDTEST,,,,DD_01.CL_DAR_CE.DDTEST
DD_01,CL_DAR_CE,DDORRES,Char,200,source.AR_DAR_CE.CETERM,DD.PART_CL_DAR_CE.DDORRES,,,,DD_01.CL_DAR_CE.DDORRES
DD_01,CL_DAR_CE,DDSTRESC,Char,200,source.AR_DAR_CE.CETERM,DD.PART_CL_DAR_CE.DDSTRESC,,,,DD_01.CL_DAR_CE.DDSTRESC
DD_01,CL_DAR_CE,DDSEQ,Num,8,source.AR_DAR_CE.CESEQ,DD.PART_CL_DAR_CE.DDSEQ,,,,DD_01.CL_DAR_CE.DDSEQ
DD_01,CL_DAR_CE,STUDYID,Char,12,source.AR_DAR_CE.STUDYID,DD.PART_CL_DAR_CE.STUDYID,,,,DD_01.CL_DAR_CE.STUDYID
DD_01,CL_DAR_CE,USUBJID,Char,30,source.AR_DAR_CE.USUBJID,DD.PART_CL_DAR_CE.USUBJID,,,,DD_01.CL_DAR_CE.USUBJID
DD_01,CL_DAR_CE,VISIT,Char,60,source.AR_DAR_CE.VISIT,DD.PART_CL_DAR_CE.VISIT,,,,DD_01.CL_DAR_CE.VISIT
DD_01,CL_DAR_CE,DDGRPID,Char,40,source.AR_DAR_CE.CEGRPID,DD.PART_CL_DAR_CE.DDGRPID,,,,DD_01.CL_DAR_CE.DDGRPID
DD_01,CL_DAR_CE,DDCAT,Char,80,source.AR_DAR_CE.CECAT,DD.PART_CL_DAR_CE.DDCAT,,,,DD_01.CL_DAR_CE.DDCAT
DD_01,CL_DAR_CE,VISITNUM,Num,8,source.AR_DAR_CE.VISITNUM,DD.PART_CL_DAR_CE.VISITNUM,,,,DD_01.CL_DAR_CE.VISITNUM
DD_01,CL_DAR_CE,DDDY,Num,8,source.AR_DAR_CE.CESTDY,DD.PART_CL_DAR_CE.DDDY,,,,DD_01.CL_DAR_CE.DDDY
DD_01,CL_DAR_CE,DOMAIN,Char,2,'DD',DD.PART_CL_DAR_CE.DOMAIN,,,,DD_01.CL_DAR_CE.DOMAIN
DD_01,CL_DAR_CE,ELEMENT,Char,150,source.AR_DAR_CE.ELEMENT,DD.PART_CL_DAR_CE.ELEMENT,,,,DD_01.CL_DAR_CE.ELEMENT
DD_01,CL_DAR_CE,EPOCH,Char,40,source.AR_DAR_CE.EPOCH,DD.PART_CL_DAR_CE.EPOCH,,,,DD_01.CL_DAR_CE.EPOCH
DD_01,CL_DAR_CE,ETCD,Char,8,source.AR_DAR_CE.ETCD,DD.PART_CL_DAR_CE.ETCD,,,,DD_01.CL_DAR_CE.ETCD
DD_01,CL_DAR_CE,DDDTC,Char,19,source.AR_DAR_CE.CESTDTC,DD.PART_CL_DAR_CE.DDDTC,,,,DD_01.CL_DAR_CE.DDDTC
MH_01,CL_MH,STUDYID,Char,12,source.AR_MH.STUDYID,MH.PART_MH.STUDYID,,,,MH_01.CL_MH.STUDYID
MH_01,CL_MH,USUBJID,Char,30,source.AR_MH.USUBJID,MH.PART_MH.USUBJID,,,,MH_01.CL_MH.USUBJID
MH_01,CL_MH,VISIT,Char,60,source.AR_MH.VISIT,MH.PART_MH.VISIT,,,,MH_01.CL_MH.VISIT
MH_01,CL_MH,MHSEQ,Num,8,source.AR_MH.MHSEQ,MH.PART_MH.MHSEQ,,,,MH_01.CL_MH.MHSEQ
MH_01,CL_MH,MHGRPID,Char,40,source.AR_MH.MHGRPID,MH.PART_MH.MHGRPID,,,,MH_01.CL_MH.MHGRPID
MH_01,CL_MH,VISITNUM,Num,8,source.AR_MH.VISITNUM,MH.PART_MH.VISITNUM,,,,MH_01.CL_MH.VISITNUM
MH_01,CL_MH,EPOCH,Char,40,source.AR_MH.EPOCH,MH.PART_MH.EPOCH,,,,MH_01.CL_MH.EPOCH
MH_01,CL_MH,MHBDSYCD,Num,8,"input(source.AR_MH.MHBDSYCD,8.)",MH.PART_MH.MHBDSYCD,,,,MH_01.CL_MH.MHBDSYCD
MH_01,CL_MH,MHBODSYS,Char,100,source.AR_MH.MHBODSYS,MH.PART_MH.MHBODSYS,,,,MH_01.CL_MH.MHBODSYS
MH_01,CL_MH,MHDECOD,Char,150,source.AR_MH.MHDECOD,MH.PART_MH.MHDECOD,,,,MH_01.CL_MH.MHDECOD
MH_01,CL_MH,MHENRTPT,Char,200,"if (source.AR_MH.MHENRF = 'DURING/AFTER')  'ONGOING'   
else  source.AR_MH.MHENRF",MH.PART_MH.MHENRTPT,,,,MH_01.CL_MH.MHENRTPT
MH_01,CL_MH,MHHLGT,Char,150,source.AR_MH.MHHLGT,MH.PART_MH.MHHLGT,,,,MH_01.CL_MH.MHHLGT
MH_01,CL_MH,MHHLGTCD,Num,8,"input(source.AR_MH.MHHLGTCD,8.)",MH.PART_MH.MHHLGTCD,,,,MH_01.CL_MH.MHHLGTCD
MH_01,CL_MH,MHHLT,Char,150,source.AR_MH.MHHLT,MH.PART_MH.MHHLT,,,,MH_01.CL_MH.MHHLT
MH_01,CL_MH,MHHLTCD,Num,8,"input(source.AR_MH.MHHLTCD,8.)",MH.PART_MH.MHHLTCD,,,,MH_01.CL_MH.MHHLTCD
MH_01,CL_MH,MHLLT,Char,150,source.AR_MH.MHLLT,MH.PART_MH.MHLLT,,,,MH_01.CL_MH.MHLLT
MH_01,CL_MH,MHLLTCD,Num,8,"input(source.AR_MH.MHLLTCD,8.)",MH.PART_MH.MHLLTCD,,,,MH_01.CL_MH.MHLLTCD
MH_01,CL_MH,MHPTCD,Num,8,"input(source.AR_MH.MHPTCD,8.)",MH.PART_MH.MHPTCD,,,,MH_01.CL_MH.MHPTCD
MH_01,CL_MH,MHSPID,Char,20,source.AR_MH.MHSPID,MH.PART_MH.MHSPID,,,,MH_01.CL_MH.MHSPID
MH_01,CL_MH,MHSTDTC,Char,19,source.AR_MH.MHSTDTC,MH.PART_MH.MHSTDTC,,,,MH_01.CL_MH.MHSTDTC
MH_01,CL_MH,MHSTDY,Num,8,source.AR_MH.MHSTDY,MH.PART_MH.MHSTDY,,,,MH_01.CL_MH.MHSTDY
MH_01,CL_MH,MHTERM,Char,200,lrtrim(source.AR_MH.MHTERM),MH.PART_MH.MHTERM,,,,MH_01.CL_MH.MHTERM
MH_01,CL_MH,TAETORD,Num,8,source.AR_MH.TAETORD,MH.PART_MH.TAETORD,,,,MH_01.CL_MH.TAETORD
MH_01,CL_MH,DOMAIN,Char,2,'MH',MH.PART_MH.DOMAIN,,,,MH_01.CL_MH.DOMAIN
MH_01,CL_MH,MHCAT,Char,200,'GENERAL MEDICAL HISTORY',MH.PART_MH.MHCAT,,,,MH_01.CL_MH.MHCAT
MH_01,CL_MH,ELEMENT,Char,150,source.AR_MH.ELEMENT,MH.PART_MH.ELEMENT,,,,MH_01.CL_MH.ELEMENT
MH_01,CL_MH,ETCD,Char,8,source.AR_MH.ETCD,MH.PART_MH.ETCD,,,,MH_01.CL_MH.ETCD
MH_01,CL_MH,TYPSURGA,Char,50,source.AR_MH.TYPSURGA,MH.PART_MH.TYPSURGA,,,,MH_01.CL_MH.TYPSURGA
MH_01,CL_MH,MHENTPT,Char,200,if (source.AR_MH.MHENRF != '') source.AR_MH.MHDTC   else  '',MH.PART_MH.MHENTPT,,,,MH_01.CL_MH.MHENTPT
MH_01,CL_MH,MHSTRTPT,Char,200,if (source.AR_MH.MHSTDTC = '') 'BEFORE'    else  '',MH.PART_MH.MHSTRTPT,,,,MH_01.CL_MH.MHSTRTPT
MH_01,CL_MH,MHSTTPT,Char,200,if (source.AR_MH.MHSTDTC = '') source.AR_MH.MHDTC   else  '',MH.PART_MH.MHSTTPT,,,,MH_01.CL_MH.MHSTTPT
MH_01,MER_MH,,,0,,,,,,MH_01.MER_MH.
MH_01,CL_MHP_MH,STUDYID,Char,12,source.AR_MHP_MH.STUDYID,MH.PART_MHP_MH.STUDYID,,,,MH_01.CL_MHP_MH.STUDYID
MH_01,CL_MHP_MH,USUBJID,Char,30,source.AR_MHP_MH.USUBJID,MH.PART_MHP_MH.USUBJID,,,,MH_01.CL_MHP_MH.USUBJID
MH_01,CL_MHP_MH,VISIT,Char,60,source.AR_MHP_MH.VISIT,MH.PART_MHP_MH.VISIT,,,,MH_01.CL_MHP_MH.VISIT
MH_01,CL_MHP_MH,MHSEQ,Num,8,source.AR_MHP_MH.MHSEQ,MH.PART_MHP_MH.MHSEQ,,,,MH_01.CL_MHP_MH.MHSEQ
MH_01,CL_MHP_MH,MHGRPID,Char,40,source.AR_MHP_MH.MHGRPID,MH.PART_MHP_MH.MHGRPID,,,,MH_01.CL_MHP_MH.MHGRPID
MH_01,CL_MHP_MH,VISITNUM,Num,8,source.AR_MHP_MH.VISITNUM,MH.PART_MHP_MH.VISITNUM,,,,MH_01.CL_MHP_MH.VISITNUM
MH_01,CL_MHP_MH,EPOCH,Char,40,source.AR_MHP_MH.EPOCH,MH.PART_MHP_MH.EPOCH,,,,MH_01.CL_MHP_MH.EPOCH
MH_01,CL_MHP_MH,MHBDSYCD,Num,8,"input(source.AR_MHP_MH.MHBDSYCD,8.)",MH.PART_MHP_MH.MHBDSYCD,,,,MH_01.CL_MHP_MH.MHBDSYCD
MH_01,CL_MHP_MH,MHBODSYS,Char,100,source.AR_MHP_MH.MHBODSYS,MH.PART_MHP_MH.MHBODSYS,,,,MH_01.CL_MHP_MH.MHBODSYS
MH_01,CL_MHP_MH,MHCAT,Char,80,source.AR_MHP_MH.MHCAT,MH.PART_MHP_MH.MHCAT,,,,MH_01.CL_MHP_MH.MHCAT
MH_01,CL_MHP_MH,MHDECOD,Char,150,source.AR_MHP_MH.MHDECOD,MH.PART_MHP_MH.MHDECOD,,,,MH_01.CL_MHP_MH.MHDECOD
MH_01,CL_MHP_MH,MHDTC,Char,19,source.AR_MHP_MH.MHDTC,MH.PART_MHP_MH.MHDTC,,,,MH_01.CL_MHP_MH.MHDTC
MH_01,CL_MHP_MH,MHDY,Num,8,source.AR_MHP_MH.MHDY,MH.PART_MHP_MH.MHDY,,,,MH_01.CL_MHP_MH.MHDY
MH_01,CL_MHP_MH,MHHLGT,Char,150,source.AR_MHP_MH.MHHLGT,MH.PART_MHP_MH.MHHLGT,,,,MH_01.CL_MHP_MH.MHHLGT
MH_01,CL_MHP_MH,MHHLGTCD,Num,8,"input(source.AR_MHP_MH.MHHLGTCD,8.)",MH.PART_MHP_MH.MHHLGTCD,,,,MH_01.CL_MHP_MH.MHHLGTCD
MH_01,CL_MHP_MH,MHHLT,Char,150,source.AR_MHP_MH.MHHLT,MH.PART_MHP_MH.MHHLT,,,,MH_01.CL_MHP_MH.MHHLT
MH_01,CL_MHP_MH,MHHLTCD,Num,8,"input(source.AR_MHP_MH.MHHLTCD,8.)",MH.PART_MHP_MH.MHHLTCD,,,,MH_01.CL_MHP_MH.MHHLTCD
MH_01,CL_MHP_MH,MHLLT,Char,150,source.AR_MHP_MH.MHLLT,MH.PART_MHP_MH.MHLLT,,,,MH_01.CL_MHP_MH.MHLLT
MH_01,CL_MHP_MH,MHLLTCD,Num,8,"input(source.AR_MHP_MH.MHLLTCD,8.)",MH.PART_MHP_MH.MHLLTCD,,,,MH_01.CL_MHP_MH.MHLLTCD
MH_01,CL_MHP_MH,MHOCCUR,Char,20,source.AR_MHP_MH.MHOCCUR,MH.PART_MHP_MH.MHOCCUR,,,,MH_01.CL_MHP_MH.MHOCCUR
MH_01,CL_MHP_MH,MHPRESP,Char,1,source.AR_MHP_MH.MHPRESP,MH.PART_MHP_MH.MHPRESP,,,,MH_01.CL_MHP_MH.MHPRESP
MH_01,CL_MHP_MH,MHPTCD,Num,8,"input(source.AR_MHP_MH.MHPTCD,8.)",MH.PART_MHP_MH.MHPTCD,,,,MH_01.CL_MHP_MH.MHPTCD
MH_01,CL_MHP_MH,MHSTDTC,Char,19,source.AR_MHP_MH.MHSTDTC,MH.PART_MHP_MH.MHSTDTC,,,,MH_01.CL_MHP_MH.MHSTDTC
MH_01,CL_MHP_MH,MHSTDY,Num,8,source.AR_MHP_MH.MHSTDY,MH.PART_MHP_MH.MHSTDY,,,,MH_01.CL_MHP_MH.MHSTDY
MH_01,CL_MHP_MH,MHTERM,Char,200,lrtrim(source.AR_MHP_MH.MHTERM),MH.PART_MHP_MH.MHTERM,,,,MH_01.CL_MHP_MH.MHTERM
MH_01,CL_MHP_MH,TAETORD,Num,8,source.AR_MHP_MH.TAETORD,MH.PART_MHP_MH.TAETORD,,,,MH_01.CL_MHP_MH.TAETORD
MH_01,CL_MHP_MH,DOMAIN,Char,2,'MH',MH.PART_MHP_MH.DOMAIN,,,,MH_01.CL_MHP_MH.DOMAIN
MH_01,CL_MHP_MH,ELEMENT,Char,150,source.AR_MHP_MH.ELEMENT,MH.PART_MHP_MH.ELEMENT,,,,MH_01.CL_MHP_MH.ELEMENT
MH_01,CL_MHP_MH,ETCD,Char,8,source.AR_MHP_MH.ETCD,MH.PART_MHP_MH.ETCD,,,,MH_01.CL_MHP_MH.ETCD
MH_01,CL_MHP_MH,MHENRTPT,Char,200,"if (source.AR_MHP_MH.MHENRF = 'DURING/AFTER')  'ONGOING'   
else  source.AR_MHP_MH.MHENRF",MH.PART_MHP_MH.MHENRTPT,,,,MH_01.CL_MHP_MH.MHENRTPT
MH_01,CL_MHP_MH,MHENTPT,Char,200,if (source.AR_MHP_MH.MHENRF != '') source.AR_MHP_MH.MHDTC   else  '',MH.PART_MHP_MH.MHENTPT,,,,MH_01.CL_MHP_MH.MHENTPT
MH_01,CL_PDIAG_MH,STUDYID,Char,12,source.AR_PDIAG_MH.STUDYID,MH.PART_PDIAG_MH.STUDYID,,,,MH_01.CL_PDIAG_MH.STUDYID
MH_01,CL_PDIAG_MH,USUBJID,Char,30,source.AR_PDIAG_MH.USUBJID,MH.PART_PDIAG_MH.USUBJID,,,,MH_01.CL_PDIAG_MH.USUBJID
MH_01,CL_PDIAG_MH,VISIT,Char,60,source.AR_PDIAG_MH.VISIT,MH.PART_PDIAG_MH.VISIT,,,,MH_01.CL_PDIAG_MH.VISIT
MH_01,CL_PDIAG_MH,MHSEQ,Num,8,source.AR_PDIAG_MH.MHSEQ,MH.PART_PDIAG_MH.MHSEQ,,,,MH_01.CL_PDIAG_MH.MHSEQ
MH_01,CL_PDIAG_MH,MHGRPID,Char,40,source.AR_PDIAG_MH.MHGRPID,MH.PART_PDIAG_MH.MHGRPID,,,,MH_01.CL_PDIAG_MH.MHGRPID
MH_01,CL_PDIAG_MH,VISITNUM,Num,8,source.AR_PDIAG_MH.VISITNUM,MH.PART_PDIAG_MH.VISITNUM,,,,MH_01.CL_PDIAG_MH.VISITNUM
MH_01,CL_PDIAG_MH,EPOCH,Char,40,source.AR_PDIAG_MH.EPOCH,MH.PART_PDIAG_MH.EPOCH,,,,MH_01.CL_PDIAG_MH.EPOCH
MH_01,CL_PDIAG_MH,MHBODSYS,Char,100,source.AR_PDIAG_MH.MHBODSYS,MH.PART_PDIAG_MH.MHBODSYS,,,,MH_01.CL_PDIAG_MH.MHBODSYS
MH_01,CL_PDIAG_MH,MHCAT,Char,80,source.AR_PDIAG_MH.MHCAT,MH.PART_PDIAG_MH.MHCAT,,,,MH_01.CL_PDIAG_MH.MHCAT
MH_01,CL_PDIAG_MH,MHDECOD,Char,150,source.AR_PDIAG_MH.MHDECOD,MH.PART_PDIAG_MH.MHDECOD,,,,MH_01.CL_PDIAG_MH.MHDECOD
MH_01,CL_PDIAG_MH,MHHLGT,Char,150,source.AR_PDIAG_MH.MHHLGT,MH.PART_PDIAG_MH.MHHLGT,,,,MH_01.CL_PDIAG_MH.MHHLGT
MH_01,CL_PDIAG_MH,MHLLT,Char,150,source.AR_PDIAG_MH.MHLLT,MH.PART_PDIAG_MH.MHLLT,,,,MH_01.CL_PDIAG_MH.MHLLT
MH_01,CL_PDIAG_MH,MHRCTDTC,Char,19,source.AR_PDIAG_MH.MHRCTDTC,MH.PART_PDIAG_MH.MHRCTDTC,,,,MH_01.CL_PDIAG_MH.MHRCTDTC
MH_01,CL_PDIAG_MH,MHSTDTC,Char,19,source.AR_PDIAG_MH.MHSTDTC,MH.PART_PDIAG_MH.MHSTDTC,,,,MH_01.CL_PDIAG_MH.MHSTDTC
MH_01,CL_PDIAG_MH,MHSTDY,Num,8,source.AR_PDIAG_MH.MHSTDY,MH.PART_PDIAG_MH.MHSTDY,,,,MH_01.CL_PDIAG_MH.MHSTDY
MH_01,CL_PDIAG_MH,MHTERM,Char,200,lrtrim(source.AR_PDIAG_MH.MHTERM),MH.PART_PDIAG_MH.MHTERM,,,,MH_01.CL_PDIAG_MH.MHTERM
MH_01,CL_PDIAG_MH,TAETORD,Num,8,source.AR_PDIAG_MH.TAETORD,MH.PART_PDIAG_MH.TAETORD,,,,MH_01.CL_PDIAG_MH.TAETORD
MH_01,CL_PDIAG_MH,MHLLTCD,Num,8,"input(source.AR_PDIAG_MH.MHLLTCD, 8.)",MH.PART_PDIAG_MH.MHLLTCD,,,,MH_01.CL_PDIAG_MH.MHLLTCD
MH_01,CL_PDIAG_MH,MHPTCD,Num,8,"input(source.AR_PDIAG_MH.MHPTCD, 8.)",MH.PART_PDIAG_MH.MHPTCD,,,,MH_01.CL_PDIAG_MH.MHPTCD
MH_01,CL_PDIAG_MH,MHHLTCD,Num,8,"input(source.AR_PDIAG_MH.MHHLTCD, 8.)",MH.PART_PDIAG_MH.MHHLTCD,,,,MH_01.CL_PDIAG_MH.MHHLTCD
MH_01,CL_PDIAG_MH,MHHLGTCD,Num,8,"input(source.AR_PDIAG_MH.MHHLGTCD, 8.)",MH.PART_PDIAG_MH.MHHLGTCD,,,,MH_01.CL_PDIAG_MH.MHHLGTCD
MH_01,CL_PDIAG_MH,MHBDSYCD,Num,8,"input(source.AR_PDIAG_MH.MHBDSYCD, 8.)",MH.PART_PDIAG_MH.MHBDSYCD,,,,MH_01.CL_PDIAG_MH.MHBDSYCD
MH_01,CL_PDIAG_MH,DOMAIN,Char,2,'MH',MH.PART_PDIAG_MH.DOMAIN,,,,MH_01.CL_PDIAG_MH.DOMAIN
MH_01,CL_PDIAG_MH,MHHLT,Char,150,source.AR_PDIAG_MH.MHHLT,MH.PART_PDIAG_MH.MHHLT,,,,MH_01.CL_PDIAG_MH.MHHLT
MH_01,CL_PDIAG_MH,ELEMENT,Char,150,source.AR_PDIAG_MH.ELEMENT,MH.PART_PDIAG_MH.ELEMENT,,,,MH_01.CL_PDIAG_MH.ELEMENT
MH_01,CL_PDIAG_MH,ETCD,Char,8,source.AR_PDIAG_MH.ETCD,MH.PART_PDIAG_MH.ETCD,,,,MH_01.CL_PDIAG_MH.ETCD
MH_01,CL_PDIAG_MH,HSERVPDX,Char,50,source.AR_PDIAG_MH.HSERVPDX,MH.PART_PDIAG_MH.HSERVPDX,,,,MH_01.CL_PDIAG_MH.HSERVPDX
MH_01,CL_PDIAG_MH,MHEVDTYP,Char,50,intermediate.NOR_PDIAG_MH.MHEVDTYP,MH.PART_PDIAG_MH.MHEVDTYP,,,,MH_01.CL_PDIAG_MH.MHEVDTYP
FA_01,FA_CL_AE,FATESTCD,Char,200,"if(source.AR_AE.AESIZE != null)  ""AESIZE"" else ''",FA.PART_FA_CL_AE.FATESTCD,,,,FA_01.FA_CL_AE.FATESTCD
FA_01,FA_CL_AE,FATEST,Char,200,"""Maximum Size""",FA.PART_FA_CL_AE.FATEST,,,,FA_01.FA_CL_AE.FATEST
FA_01,FA_CL_AE,FAORRES,Char,200,"lrtrim(left(put(source.AR_AE.AESIZE,""BEST16."")))",FA.PART_FA_CL_AE.FAORRES,,,,FA_01.FA_CL_AE.FAORRES
FA_01,FA_CL_AE,FASTRESC,Char,200,"lrtrim(left(put(source.AR_AE.AESIZE,""BEST16."")))",FA.PART_FA_CL_AE.FASTRESC,,,,FA_01.FA_CL_AE.FASTRESC
FA_01,FA_CL_AE,FASTRESN,Num,8,source.AR_AE.AESIZE,FA.PART_FA_CL_AE.FASTRESN,,,,FA_01.FA_CL_AE.FASTRESN
FA_01,FA_CL_AE,FAOBJ,Char,200,source.AR_AE.AEDECOD,FA.PART_FA_CL_AE.FAOBJ,,,,FA_01.FA_CL_AE.FAOBJ
FA_01,FA_CL_AE,STUDYID,Char,12,source.AR_AE.STUDYID,FA.PART_FA_CL_AE.STUDYID,,,,FA_01.FA_CL_AE.STUDYID
FA_01,FA_CL_AE,USUBJID,Char,30,source.AR_AE.USUBJID,FA.PART_FA_CL_AE.USUBJID,,,,FA_01.FA_CL_AE.USUBJID
FA_01,FA_CL_AE,VISIT,Char,60,source.AR_AE.VISIT,FA.PART_FA_CL_AE.VISIT,,,,FA_01.FA_CL_AE.VISIT
FA_01,FA_CL_AE,FASEQ,Char,200,source.AR_AE.AESEQ,FA.PART_FA_CL_AE.FASEQ,,,,FA_01.FA_CL_AE.FASEQ
FA_01,FA_CL_AE,FAGRPID,Char,40,source.AR_AE.AEGRPID,FA.PART_FA_CL_AE.FAGRPID,,,,FA_01.FA_CL_AE.FAGRPID
FA_01,FA_CL_AE,VISITNUM,Num,8,source.AR_AE.VISITNUM,FA.PART_FA_CL_AE.VISITNUM,,,,FA_01.FA_CL_AE.VISITNUM
FA_01,FA_CL_AE,FAORRESU,Char,25,source.AR_AE.AESIZEU,FA.PART_FA_CL_AE.FAORRESU,,,,FA_01.FA_CL_AE.FAORRESU
FA_01,FA_CL_AE,EPOCH,Char,40,source.AR_AE.EPOCH,FA.PART_FA_CL_AE.EPOCH,,,,FA_01.FA_CL_AE.EPOCH
FA_01,FA_CL_AE,DOMAIN,Char,2,'FA',FA.PART_FA_CL_AE.DOMAIN,,,,FA_01.FA_CL_AE.DOMAIN
FA_01,FA_CL_AE,FASTRESU,Char,25,source.AR_AE.AESIZEU,FA.PART_FA_CL_AE.FASTRESU,,,,FA_01.FA_CL_AE.FASTRESU
FA_01,FA_CL_AE,ELEMENT,Char,150,source.AR_AE.ELEMENT,FA.PART_FA_CL_AE.ELEMENT,,,,FA_01.FA_CL_AE.ELEMENT
FA_01,FA_CL_AE,ETCD,Char,8,source.AR_AE.ETCD,FA.PART_FA_CL_AE.ETCD,,,,FA_01.FA_CL_AE.ETCD
FA_01,FA_CL_AE,TAETORD,Num,8,source.AR_AE.TAETORD,FA.PART_FA_CL_AE.TAETORD,,,,FA_01.FA_CL_AE.TAETORD
FA_01,MER_FA,,,0,,,,,,FA_01.MER_FA.
FA_01,CL_AEOST_CF,STUDYID,Char,12,source.AR_AEOST_CF.STUDYID,FA.PART_AEOST_CF.STUDYID,,,,FA_01.CL_AEOST_CF.STUDYID
FA_01,CL_AEOST_CF,USUBJID,Char,30,source.AR_AEOST_CF.USUBJID,FA.PART_AEOST_CF.USUBJID,,,,FA_01.CL_AEOST_CF.USUBJID
FA_01,CL_AEOST_CF,VISIT,Char,60,source.AR_AEOST_CF.VISIT,FA.PART_AEOST_CF.VISIT,,,,FA_01.CL_AEOST_CF.VISIT
FA_01,CL_AEOST_CF,CFSEQ,Num,8,source.AR_AEOST_CF.CFSEQ,FA.PART_AEOST_CF.FASEQ,,,,FA_01.CL_AEOST_CF.CFSEQ
FA_01,CL_AEOST_CF,CFGRPID,Char,40,source.AR_AEOST_CF.CFGRPID,FA.PART_AEOST_CF.FAGRPID,,,,FA_01.CL_AEOST_CF.CFGRPID
FA_01,CL_AEOST_CF,CFSPID,Char,20,source.AR_AEOST_CF.CFSPID,FA.PART_AEOST_CF.FASPID,,,,FA_01.CL_AEOST_CF.CFSPID
FA_01,CL_AEOST_CF,VISITNUM,Num,8,source.AR_AEOST_CF.VISITNUM,FA.PART_AEOST_CF.VISITNUM,,,,FA_01.CL_AEOST_CF.VISITNUM
FA_01,CL_AEOST_CF,CFCAT,Char,80,source.AR_AEOST_CF.CFCAT,FA.PART_AEOST_CF.FACAT,,,,FA_01.CL_AEOST_CF.CFCAT
FA_01,CL_AEOST_CF,CFORRES,Char,200,source.AR_AEOST_CF.CFORRES,FA.PART_AEOST_CF.FAORRES,,,,FA_01.CL_AEOST_CF.CFORRES
FA_01,CL_AEOST_CF,CFSTRESC,Char,200,source.AR_AEOST_CF.CFSTRESC,FA.PART_AEOST_CF.FASTRESC,,,,FA_01.CL_AEOST_CF.CFSTRESC
FA_01,CL_AEOST_CF,CFTEST,Char,60,source.AR_AEOST_CF.CFTEST,FA.PART_AEOST_CF.FATEST,,,,FA_01.CL_AEOST_CF.CFTEST
FA_01,CL_AEOST_CF,CFTESTCD,Char,8,source.AR_AEOST_CF.CFTESTCD,FA.PART_AEOST_CF.FATESTCD,,,,FA_01.CL_AEOST_CF.CFTESTCD
FA_01,CL_AEOST_CF,DOMAIN,Char,2,'FA',FA.PART_AEOST_CF.DOMAIN,,,,FA_01.CL_AEOST_CF.DOMAIN
FA_01,CL_AEOST_CF,FAOBJ,Char,200,'SUSPECT THERAPY',FA.PART_AEOST_CF.FAOBJ,,,,FA_01.CL_AEOST_CF.FAOBJ
FA_01,CL_AEOST_CF,CFDTC,Char,19,source.AR_AEOST_CF.CFDTC,FA.PART_AEOST_CF.FADTC,,,,FA_01.CL_AEOST_CF.CFDTC
FA_01,CL_AEOST_CF,EPOCH,Char,40,source.AR_AEOST_CF.EPOCH,FA.PART_AEOST_CF.EPOCH,,,,FA_01.CL_AEOST_CF.EPOCH
FA_01,CL_AEOST_CF,TAETORD,Num,8,source.AR_AEOST_CF.TAETORD,FA.PART_AEOST_CF.TAETORD,,,,FA_01.CL_AEOST_CF.TAETORD
FA_01,CL_AEOST_CF,VISITDY,Num,8,source.AR_AEOST_CF.VISITDY,FA.PART_AEOST_CF.VISITDY,,,,FA_01.CL_AEOST_CF.VISITDY
FA_01,CL_AEOST_CF,CFDY,Num,8,source.AR_AEOST_CF.CFDY,FA.PART_AEOST_CF.FADY,,,,FA_01.CL_AEOST_CF.CFDY
FA_01,CL_AEOST_CF,CFBLFL,Char,1,source.AR_AEOST_CF.CFBLFL,FA.PART_AEOST_CF.FABLFL,,,,FA_01.CL_AEOST_CF.CFBLFL
FA_01,CL_AEOST_CF,ELEMENT,Char,150,source.AR_AEOST_CF.ELEMENT,FA.PART_AEOST_CF.ELEMENT,,,,FA_01.CL_AEOST_CF.ELEMENT
FA_01,CL_AEOST_CF,ETCD,Char,8,source.AR_AEOST_CF.ETCD,FA.PART_AEOST_CF.ETCD,,,,FA_01.CL_AEOST_CF.ETCD
FA_01,CL_AEOST_CF,STDYRLEP,Char,200,"lrtrim(left(put( source.AR_AEOST_CF.STDYRLEP ,""BEST16."")))",FA.PART_AEOST_CF.STDYRLEP,,,,FA_01.CL_AEOST_CF.STDYRLEP
FA_01,CL_COUGHS_EDT_FA,STUDYID,Char,12,source.AR_COUGHS_EDT_FA.STUDYID,FA.PART_COUGHS_EDT_FA.STUDYID,,,,FA_01.CL_COUGHS_EDT_FA.STUDYID
FA_01,CL_COUGHS_EDT_FA,USUBJID,Char,30,source.AR_COUGHS_EDT_FA.USUBJID,FA.PART_COUGHS_EDT_FA.USUBJID,,,,FA_01.CL_COUGHS_EDT_FA.USUBJID
FA_01,CL_COUGHS_EDT_FA,VISIT,Char,60,source.AR_COUGHS_EDT_FA.VISIT,FA.PART_COUGHS_EDT_FA.VISIT,,,,FA_01.CL_COUGHS_EDT_FA.VISIT
FA_01,CL_COUGHS_EDT_FA,FASEQ,Num,8,source.AR_COUGHS_EDT_FA.FASEQ,FA.PART_COUGHS_EDT_FA.FASEQ,,,,FA_01.CL_COUGHS_EDT_FA.FASEQ
FA_01,CL_COUGHS_EDT_FA,FAREFID,Char,40,source.AR_COUGHS_EDT_FA.FAREFID,FA.PART_COUGHS_EDT_FA.FAREFID,,,,FA_01.CL_COUGHS_EDT_FA.FAREFID
FA_01,CL_COUGHS_EDT_FA,FASTTPT,Char,200,source.AR_COUGHS_EDT_FA.FASTTPT,FA.PART_COUGHS_EDT_FA.FASTTPT,,,,FA_01.CL_COUGHS_EDT_FA.FASTTPT
FA_01,CL_COUGHS_EDT_FA,FATESTCD,Char,8,source.AR_COUGHS_EDT_FA.FATESTCD,FA.PART_COUGHS_EDT_FA.FATESTCD,,,,FA_01.CL_COUGHS_EDT_FA.FATESTCD
FA_01,CL_COUGHS_EDT_FA,VISITNUM,Num,8,source.AR_COUGHS_EDT_FA.VISITNUM,FA.PART_COUGHS_EDT_FA.VISITNUM,,,,FA_01.CL_COUGHS_EDT_FA.VISITNUM
FA_01,CL_COUGHS_EDT_FA,EPOCH,Char,40,source.AR_COUGHS_EDT_FA.EPOCH,FA.PART_COUGHS_EDT_FA.EPOCH,,,,FA_01.CL_COUGHS_EDT_FA.EPOCH
FA_01,CL_COUGHS_EDT_FA,FABLFL,Char,1,source.AR_COUGHS_EDT_FA.FABLFL,FA.PART_COUGHS_EDT_FA.FABLFL,,,,FA_01.CL_COUGHS_EDT_FA.FABLFL
FA_01,CL_COUGHS_EDT_FA,FACAT,Char,100,source.AR_COUGHS_EDT_FA.FACAT,FA.PART_COUGHS_EDT_FA.FACAT,,,,FA_01.CL_COUGHS_EDT_FA.FACAT
FA_01,CL_COUGHS_EDT_FA,FADTC,Char,19,source.AR_COUGHS_EDT_FA.FADTC,FA.PART_COUGHS_EDT_FA.FADTC,,,,FA_01.CL_COUGHS_EDT_FA.FADTC
FA_01,CL_COUGHS_EDT_FA,FADY,Num,8,source.AR_COUGHS_EDT_FA.FADY,FA.PART_COUGHS_EDT_FA.FADY,,,,FA_01.CL_COUGHS_EDT_FA.FADY
FA_01,CL_COUGHS_EDT_FA,FAENRTPT,Char,200,source.AR_COUGHS_EDT_FA.FAENRTPT,FA.PART_COUGHS_EDT_FA.FAENRTPT,,,,FA_01.CL_COUGHS_EDT_FA.FAENRTPT
FA_01,CL_COUGHS_EDT_FA,FAENTPT,Char,200,source.AR_COUGHS_EDT_FA.FAENTPT,FA.PART_COUGHS_EDT_FA.FAENTPT,,,,FA_01.CL_COUGHS_EDT_FA.FAENTPT
FA_01,CL_COUGHS_EDT_FA,FAEVLINT,Char,60,source.AR_COUGHS_EDT_FA.FAEVLINT,FA.PART_COUGHS_EDT_FA.FAEVLINT,,,,FA_01.CL_COUGHS_EDT_FA.FAEVLINT
FA_01,CL_COUGHS_EDT_FA,FAGRPID,Char,40,source.AR_COUGHS_EDT_FA.FAGRPID,FA.PART_COUGHS_EDT_FA.FAGRPID,,,,FA_01.CL_COUGHS_EDT_FA.FAGRPID
FA_01,CL_COUGHS_EDT_FA,FANAM,Char,100,source.AR_COUGHS_EDT_FA.FANAM,FA.PART_COUGHS_EDT_FA.FANAM,,,,FA_01.CL_COUGHS_EDT_FA.FANAM
FA_01,CL_COUGHS_EDT_FA,FAOBJ,Char,100,source.AR_COUGHS_EDT_FA.FAOBJ,FA.PART_COUGHS_EDT_FA.FAOBJ,,,,FA_01.CL_COUGHS_EDT_FA.FAOBJ
FA_01,CL_COUGHS_EDT_FA,FAORRES,Char,200,source.AR_COUGHS_EDT_FA.FAORRES,FA.PART_COUGHS_EDT_FA.FAORRES,,,,FA_01.CL_COUGHS_EDT_FA.FAORRES
FA_01,CL_COUGHS_EDT_FA,FASPID,Char,20,source.AR_COUGHS_EDT_FA.FASPID,FA.PART_COUGHS_EDT_FA.FASPID,,,,FA_01.CL_COUGHS_EDT_FA.FASPID
FA_01,CL_COUGHS_EDT_FA,FASTAT,Char,8,source.AR_COUGHS_EDT_FA.FASTAT,FA.PART_COUGHS_EDT_FA.FASTAT,,,,FA_01.CL_COUGHS_EDT_FA.FASTAT
FA_01,CL_COUGHS_EDT_FA,FASTRESC,Char,200,source.AR_COUGHS_EDT_FA.FASTRESC,FA.PART_COUGHS_EDT_FA.FASTRESC,,,,FA_01.CL_COUGHS_EDT_FA.FASTRESC
FA_01,CL_COUGHS_EDT_FA,FASTRESN,Num,8,source.AR_COUGHS_EDT_FA.FASTRESN,FA.PART_COUGHS_EDT_FA.FASTRESN,,,,FA_01.CL_COUGHS_EDT_FA.FASTRESN
FA_01,CL_COUGHS_EDT_FA,FASTRTPT,Char,200,source.AR_COUGHS_EDT_FA.FASTRTPT,FA.PART_COUGHS_EDT_FA.FASTRTPT,,,,FA_01.CL_COUGHS_EDT_FA.FASTRTPT
FA_01,CL_COUGHS_EDT_FA,FATEST,Char,100,source.AR_COUGHS_EDT_FA.FATEST,FA.PART_COUGHS_EDT_FA.FATEST,,,,FA_01.CL_COUGHS_EDT_FA.FATEST
FA_01,CL_COUGHS_EDT_FA,TAETORD,Num,8,source.AR_COUGHS_EDT_FA.TAETORD,FA.PART_COUGHS_EDT_FA.TAETORD,,,,FA_01.CL_COUGHS_EDT_FA.TAETORD
FA_01,CL_COUGHS_EDT_FA,VISITDY,Num,8,source.AR_COUGHS_EDT_FA.VISITDY,FA.PART_COUGHS_EDT_FA.VISITDY,,,,FA_01.CL_COUGHS_EDT_FA.VISITDY
FA_01,CL_COUGHS_EDT_FA,DOMAIN,Char,2,'FA',FA.PART_COUGHS_EDT_FA.DOMAIN,,,,FA_01.CL_COUGHS_EDT_FA.DOMAIN
FA_01,CL_COUGHS_EDT_FA,ACCEPT,Char,200,source.AR_COUGHS_EDT_FA.ACCEPT,FA.PART_COUGHS_EDT_FA.ACCEPT,,,,FA_01.CL_COUGHS_EDT_FA.ACCEPT
FA_01,CL_COUGHS_EDT_FA,ELEMENT,Char,150,source.AR_COUGHS_EDT_FA.ELEMENT,FA.PART_COUGHS_EDT_FA.ELEMENT,,,,FA_01.CL_COUGHS_EDT_FA.ELEMENT
FA_01,CL_COUGHS_EDT_FA,ETCD,Char,8,source.AR_COUGHS_EDT_FA.ETCD,FA.PART_COUGHS_EDT_FA.ETCD,,,,FA_01.CL_COUGHS_EDT_FA.ETCD
FA_01,CL_COUGHS_EDT_FA,FULANREQ,Char,200,source.AR_COUGHS_EDT_FA.FULANREQ,FA.PART_COUGHS_EDT_FA.FULANREQ,,,,FA_01.CL_COUGHS_EDT_FA.FULANREQ
FA_01,CL_COUGHS_EDT_FA,MICISSUE,Char,200,source.AR_COUGHS_EDT_FA.MICISSUE,FA.PART_COUGHS_EDT_FA.MICISSUE,,,,FA_01.CL_COUGHS_EDT_FA.MICISSUE
FA_01,CL_COUGHS_EDT_FA,NOISSUE,Char,200,source.AR_COUGHS_EDT_FA.NOISSUE,FA.PART_COUGHS_EDT_FA.NOISSUE,,,,FA_01.CL_COUGHS_EDT_FA.NOISSUE
FA_01,CL_COUGHS_EDT_FA,SENISSUE,Char,200,source.AR_COUGHS_EDT_FA.SENISSUE,FA.PART_COUGHS_EDT_FA.SENISSUE,,,,FA_01.CL_COUGHS_EDT_FA.SENISSUE
FA_01,CL_COUGHS_EDT_FA,STDYRLEP,Char,200,"lrtrim(left(put(source.AR_COUGHS_EDT_FA.STDYRLEP,""BEST16."")))",FA.PART_COUGHS_EDT_FA.STDYRLEP,,,,FA_01.CL_COUGHS_EDT_FA.STDYRLEP
FA_01,FA_CL_PROC_PR,STUDYID,Char,12,source.AR_PROC_PR.STUDYID,FA.PART_FA_CL_PROC_PR.STUDYID,,,,FA_01.FA_CL_PROC_PR.STUDYID
FA_01,FA_CL_PROC_PR,USUBJID,Char,30,source.AR_PROC_PR.USUBJID,FA.PART_FA_CL_PROC_PR.USUBJID,,,,FA_01.FA_CL_PROC_PR.USUBJID
FA_01,FA_CL_PROC_PR,VISIT,Char,60,source.AR_PROC_PR.VISIT,FA.PART_FA_CL_PROC_PR.VISIT,,,,FA_01.FA_CL_PROC_PR.VISIT
FA_01,FA_CL_PROC_PR,FASEQ,Num,8,intermediate.FA_NOR_PROC_PR.FASEQ,FA.PART_FA_CL_PROC_PR.FASEQ,,,,FA_01.FA_CL_PROC_PR.FASEQ
FA_01,FA_CL_PROC_PR,VISITNUM,Num,8,source.AR_PROC_PR.VISITNUM,FA.PART_FA_CL_PROC_PR.VISITNUM,,,,FA_01.FA_CL_PROC_PR.VISITNUM
FA_01,FA_CL_PROC_PR,FASPID,Char,20,source.AR_PROC_PR.PRSPID,FA.PART_FA_CL_PROC_PR.FASPID,,,,FA_01.FA_CL_PROC_PR.FASPID
FA_01,FA_CL_PROC_PR,FADTC,Char,19,source.AR_PROC_PR.PRSTDTC,FA.PART_FA_CL_PROC_PR.FADTC,,,,FA_01.FA_CL_PROC_PR.FADTC
FA_01,FA_CL_PROC_PR,TAETORD,Num,8,source.AR_PROC_PR.TAETORD,FA.PART_FA_CL_PROC_PR.TAETORD,,,,FA_01.FA_CL_PROC_PR.TAETORD
FA_01,FA_CL_PROC_PR,FATESTCD,Char,200,intermediate.FA_NOR_PROC_PR.FATESTCD,FA.PART_FA_CL_PROC_PR.FATESTCD,,,,FA_01.FA_CL_PROC_PR.FATESTCD
FA_01,FA_CL_PROC_PR,FATEST,Char,200,intermediate.FA_NOR_PROC_PR.FATEST,FA.PART_FA_CL_PROC_PR.FATEST,,,,FA_01.FA_CL_PROC_PR.FATEST
FA_01,FA_CL_PROC_PR,FAOBJ,Char,200,intermediate.FA_NOR_PROC_PR.FAOBJ,FA.PART_FA_CL_PROC_PR.FAOBJ,,,,FA_01.FA_CL_PROC_PR.FAOBJ
FA_01,FA_CL_PROC_PR,FAORRES,Char,200,intermediate.FA_NOR_PROC_PR.FAORRES,FA.PART_FA_CL_PROC_PR.FAORRES,,,,FA_01.FA_CL_PROC_PR.FAORRES
FA_01,FA_CL_PROC_PR,FASTRESC,Char,200,intermediate.FA_NOR_PROC_PR.FASTRESC,FA.PART_FA_CL_PROC_PR.FASTRESC,,,,FA_01.FA_CL_PROC_PR.FASTRESC
FA_01,FA_CL_PROC_PR,FASTRESN,Num,8,intermediate.FA_NOR_PROC_PR.FASTRESN,FA.PART_FA_CL_PROC_PR.FASTRESN,,,,FA_01.FA_CL_PROC_PR.FASTRESN
FA_01,FA_CL_PROC_PR,FADY,Num,8,source.AR_PROC_PR.PRSTDY,FA.PART_FA_CL_PROC_PR.FADY,,,,FA_01.FA_CL_PROC_PR.FADY
FA_01,FA_CL_PROC_PR,PRGRPID,Char,40,source.AR_PROC_PR.PRGRPID,FA.PART_FA_CL_PROC_PR.FAGRPID,,,,FA_01.FA_CL_PROC_PR.PRGRPID
FA_01,FA_CL_PROC_PR,DOMAIN,Char,40,'FA',FA.PART_FA_CL_PROC_PR.DOMAIN,,,,FA_01.FA_CL_PROC_PR.DOMAIN
FA_01,FA_CL_PROC_PR,EPOCH,Char,40,source.AR_PROC_PR.EPOCH,FA.PART_FA_CL_PROC_PR.EPOCH,,,,FA_01.FA_CL_PROC_PR.EPOCH
FA_01,FA_CL_PROC_PR,ELEMENT,Char,150,source.AR_PROC_PR.ELEMENT,FA.PART_FA_CL_PROC_PR.ELEMENT,,,,FA_01.FA_CL_PROC_PR.ELEMENT
FA_01,FA_CL_PROC_PR,ETCD,Char,8,source.AR_PROC_PR.ETCD,FA.PART_FA_CL_PROC_PR.ETCD,,,,FA_01.FA_CL_PROC_PR.ETCD
FA_01,FA_CL_PROC_PR,SPDYRLEP,Char,200,"lrtrim(left(put(source.AR_PROC_PR.SPDYRLEP,""BEST16."")))",FA.PART_FA_CL_PROC_PR.SPDYRLEP,,,,FA_01.FA_CL_PROC_PR.SPDYRLEP
FA_01,FA_CL_PROC_PR,STDYRLEP,Char,200,"lrtrim(left(put(source.AR_PROC_PR.STDYRLEP,""BEST16."")))",FA.PART_FA_CL_PROC_PR.STDYRLEP,,,,FA_01.FA_CL_PROC_PR.STDYRLEP
FA_01,FA_NOR_PROC_PR,FATESTCD,Char,200,"normalize(if (source.AR_PROC_PR.PRCHNGBL!='') ""CHNGBL"" else """",if (source.AR_PROC_PR.PRCHNGPP!='') ""CHNGPP"" else """",if (source.AR_PROC_PR.PRRESULT!='') ""INTP"" else """")",,,,,FA_01.FA_NOR_PROC_PR.FATESTCD
FA_01,FA_NOR_PROC_PR,FATEST,Char,200,"normalize('Change from Baseline','Change from Previous Procedure','Interpretation')",,,,,FA_01.FA_NOR_PROC_PR.FATEST
FA_01,FA_NOR_PROC_PR,FAOBJ,Char,200,"normalize(source.AR_PROC_PR.PRTRT,source.AR_PROC_PR.PRTRT,source.AR_PROC_PR.PRTRT)",,,,,FA_01.FA_NOR_PROC_PR.FAOBJ
FA_01,FA_NOR_PROC_PR,FAORRES,Char,200,"normalize(source.AR_PROC_PR.PRCHNGBL,source.AR_PROC_PR.PRCHNGPP,source.AR_PROC_PR.PRRESULT)",,,,,FA_01.FA_NOR_PROC_PR.FAORRES
FA_01,FA_NOR_PROC_PR,FASTRESC,Char,200,"normalize(source.AR_PROC_PR.PRCHNGBL,source.AR_PROC_PR.PRCHNGPP,source.AR_PROC_PR.PRRESULT)",,,,,FA_01.FA_NOR_PROC_PR.FASTRESC
FA_01,FA_NOR_PROC_PR,FASTRESN,Num,8,"normalize(null,null,null)",,,,,FA_01.FA_NOR_PROC_PR.FASTRESN
FA_01,FA_NOR_PROC_PR,FASEQ,Num,8,"normalize(source.AR_PROC_PR.PRSEQ+10000,source.AR_PROC_PR.PRSEQ+20000,source.AR_PROC_PR.PRSEQ+30000)",,,,,FA_01.FA_NOR_PROC_PR.FASEQ
FA_01,CL_SFF_CF,STUDYID,Char,12,source.AR_SFF_CF.STUDYID,FA.PART_SFF_CF.STUDYID,,,,FA_01.CL_SFF_CF.STUDYID
FA_01,CL_SFF_CF,USUBJID,Char,30,source.AR_SFF_CF.USUBJID,FA.PART_SFF_CF.USUBJID,,,,FA_01.CL_SFF_CF.USUBJID
FA_01,CL_SFF_CF,VISIT,Char,60,source.AR_SFF_CF.VISIT,FA.PART_SFF_CF.VISIT,,,,FA_01.CL_SFF_CF.VISIT
FA_01,CL_SFF_CF,CFSEQ,Num,8,source.AR_SFF_CF.CFSEQ,FA.PART_SFF_CF.FASEQ,,,,FA_01.CL_SFF_CF.CFSEQ
FA_01,CL_SFF_CF,CFGRPID,Char,40,source.AR_SFF_CF.CFGRPID,FA.PART_SFF_CF.FAGRPID,,,,FA_01.CL_SFF_CF.CFGRPID
FA_01,CL_SFF_CF,CFSPID,Char,20,source.AR_SFF_CF.CFSPID,FA.PART_SFF_CF.FASPID,,,,FA_01.CL_SFF_CF.CFSPID
FA_01,CL_SFF_CF,VISITNUM,Num,8,source.AR_SFF_CF.VISITNUM,FA.PART_SFF_CF.VISITNUM,,,,FA_01.CL_SFF_CF.VISITNUM
FA_01,CL_SFF_CF,CFDTC,Char,19,source.AR_SFF_CF.CFDTC,FA.PART_SFF_CF.FADTC,,,,FA_01.CL_SFF_CF.CFDTC
FA_01,CL_SFF_CF,CFDY,Num,8,source.AR_SFF_CF.CFDY,FA.PART_SFF_CF.FADY,,,,FA_01.CL_SFF_CF.CFDY
FA_01,CL_SFF_CF,CFORRES,Char,255,source.AR_SFF_CF.CFORRES,FA.PART_SFF_CF.FAORRES,,,,FA_01.CL_SFF_CF.CFORRES
FA_01,CL_SFF_CF,CFSTRESC,Char,300,source.AR_SFF_CF.CFSTRESC,FA.PART_SFF_CF.FASTRESC,,,,FA_01.CL_SFF_CF.CFSTRESC
FA_01,CL_SFF_CF,CFTEST,Char,60,"if (source.AR_SFF_CF.CFTESTCD = 'SAFETYFU' ) 'Occurrence Indicator'
else source.AR_SFF_CF.CFTEST",FA.PART_SFF_CF.FATEST,,,,FA_01.CL_SFF_CF.CFTEST
FA_01,CL_SFF_CF,CFTESTCD,Char,8,"if (source.AR_SFF_CF.CFTESTCD = 'SAFETYFU' ) 'OCCUR'
 else source.AR_SFF_CF.CFTESTCD",FA.PART_SFF_CF.FATESTCD,,,,FA_01.CL_SFF_CF.CFTESTCD
FA_01,CL_SFF_CF,EPOCH,Char,40,source.AR_SFF_CF.EPOCH,FA.PART_SFF_CF.EPOCH,,,,FA_01.CL_SFF_CF.EPOCH
FA_01,CL_SFF_CF,TAETORD,Num,8,source.AR_SFF_CF.TAETORD,FA.PART_SFF_CF.TAETORD,,,,FA_01.CL_SFF_CF.TAETORD
FA_01,CL_SFF_CF,VISITDY,Num,8,source.AR_SFF_CF.VISITDY,FA.PART_SFF_CF.VISITDY,,,,FA_01.CL_SFF_CF.VISITDY
FA_01,CL_SFF_CF,DOMAIN,Char,2,'FA',FA.PART_SFF_CF.DOMAIN,,,,FA_01.CL_SFF_CF.DOMAIN
FA_01,CL_SFF_CF,FAOBJ,Char,200,source.AR_SFF_CF.CFCAT,FA.PART_SFF_CF.FAOBJ,,,,FA_01.CL_SFF_CF.FAOBJ
FA_01,CL_SFF_CF,FACAT,Char,200,'SAFETY FOLLOW-UP ASSESMENTS',FA.PART_SFF_CF.FACAT,,,,FA_01.CL_SFF_CF.FACAT
FA_01,CL_SFF_CF,ELEMENT,Char,150,source.AR_SFF_CF.ELEMENT,FA.PART_SFF_CF.ELEMENT,,,,FA_01.CL_SFF_CF.ELEMENT
FA_01,CL_SFF_CF,ETCD,Char,8,source.AR_SFF_CF.ETCD,FA.PART_SFF_CF.ETCD,,,,FA_01.CL_SFF_CF.ETCD
FA_01,CL_SFF_CF,CFBLFL,Char,1,source.AR_SFF_CF.CFBLFL,FA.PART_SFF_CF.FABLFL,,,,FA_01.CL_SFF_CF.CFBLFL
FA_01,FA_CL_SU,FAORRESU,Char,200,intermediate.FA_NOR_SU.FAORRESU,FA.PART_FA_CL_SU.FAORRESU,,,,FA_01.FA_CL_SU.FAORRESU
FA_01,FA_CL_SU,FASTRESC,Char,200,intermediate.FA_NOR_SU.FASTRESC,FA.PART_FA_CL_SU.FASTRESC,,,,FA_01.FA_CL_SU.FASTRESC
FA_01,FA_CL_SU,FASTRESN,Num,8,intermediate.FA_NOR_SU.FASTRESN,FA.PART_FA_CL_SU.FASTRESN,,,,FA_01.FA_CL_SU.FASTRESN
FA_01,FA_CL_SU,FAORRES,Char,200,intermediate.FA_NOR_SU.FAORRES,FA.PART_FA_CL_SU.FAORRES,,,,FA_01.FA_CL_SU.FAORRES
FA_01,FA_CL_SU,FAOBJ,Char,200,intermediate.FA_NOR_SU.FAOBJ,FA.PART_FA_CL_SU.FAOBJ,,,,FA_01.FA_CL_SU.FAOBJ
FA_01,FA_CL_SU,FATEST,Char,200,intermediate.FA_NOR_SU.FATEST,FA.PART_FA_CL_SU.FATEST,,,,FA_01.FA_CL_SU.FATEST
FA_01,FA_CL_SU,FATESTCD,Char,200,intermediate.FA_NOR_SU.FATESTCD,FA.PART_FA_CL_SU.FATESTCD,,,,FA_01.FA_CL_SU.FATESTCD
FA_01,FA_CL_SU,FASEQ,Num,8,intermediate.FA_NOR_SU.FASEQ,FA.PART_FA_CL_SU.FASEQ,,,,FA_01.FA_CL_SU.FASEQ
FA_01,FA_CL_SU,STUDYID,Char,12,source.AR_SU.STUDYID,FA.PART_FA_CL_SU.STUDYID,,,,FA_01.FA_CL_SU.STUDYID
FA_01,FA_CL_SU,USUBJID,Char,30,source.AR_SU.USUBJID,FA.PART_FA_CL_SU.USUBJID,,,,FA_01.FA_CL_SU.USUBJID
FA_01,FA_CL_SU,VISIT,Char,60,source.AR_SU.VISIT,FA.PART_FA_CL_SU.VISIT,,,,FA_01.FA_CL_SU.VISIT
FA_01,FA_CL_SU,FAGRPID,Char,40,source.AR_SU.SUGRPID,FA.PART_FA_CL_SU.FAGRPID,,,,FA_01.FA_CL_SU.FAGRPID
FA_01,FA_CL_SU,VISITNUM,Num,8,source.AR_SU.VISITNUM,FA.PART_FA_CL_SU.VISITNUM,,,,FA_01.FA_CL_SU.VISITNUM
FA_01,FA_CL_SU,ELEMENT,Char,150,source.AR_SU.ELEMENT,FA.PART_FA_CL_SU.ELEMENT,,,,FA_01.FA_CL_SU.ELEMENT
FA_01,FA_CL_SU,EPOCH,Char,40,source.AR_SU.EPOCH,FA.PART_FA_CL_SU.EPOCH,,,,FA_01.FA_CL_SU.EPOCH
FA_01,FA_CL_SU,ETCD,Char,8,source.AR_SU.ETCD,FA.PART_FA_CL_SU.ETCD,,,,FA_01.FA_CL_SU.ETCD
FA_01,FA_CL_SU,FACAT,Char,80,source.AR_SU.SUCAT,FA.PART_FA_CL_SU.FACAT,,,,FA_01.FA_CL_SU.FACAT
FA_01,FA_CL_SU,FADTC,Char,19,source.AR_SU.SUSTDTC,FA.PART_FA_CL_SU.FADTC,,,,FA_01.FA_CL_SU.FADTC
FA_01,FA_CL_SU,FADY,Num,8,source.AR_SU.SUSTDY,FA.PART_FA_CL_SU.FADY,,,,FA_01.FA_CL_SU.FADY
FA_01,FA_CL_SU,TAETORD,Num,8,source.AR_SU.TAETORD,FA.PART_FA_CL_SU.TAETORD,,,,FA_01.FA_CL_SU.TAETORD
FA_01,FA_CL_SU,DOMAIN,Char,2,'FA',FA.PART_FA_CL_SU.DOMAIN,,,,FA_01.FA_CL_SU.DOMAIN
FA_01,FA_NOR_SU,FAORRESU,Char,200,"normalize(source.AR_SU.SUQAFTU,source.AR_SU.SUQEVENU,source.AR_SU.SUQMORNU)",,,,,FA_01.FA_NOR_SU.FAORRESU
FA_01,FA_NOR_SU,FASTRESC,Char,200,"normalize(if (source.AR_SU.SUTRT==""CAFFINE"") lrtrim(left(put(source.AR_SU.SUQAFT,""BEST16.""))), 
if (source.AR_SU.SUTRT==""CAFFINE"") lrtrim(left(put(source.AR_SU.SUQEVEN,""BEST16.""))), 
if (source.AR_SU.SUTRT==""CAFFINE"") lrtrim(left(put(source.AR_SU.SUQMORN,""BEST16.""))))",,,,,FA_01.FA_NOR_SU.FASTRESC
FA_01,FA_NOR_SU,FASTRESN,Num,8,"normalize(if (source.AR_SU.SUTRT==""CAFFINE"") source.AR_SU.SUQAFT,if (source.AR_SU.SUTRT==""CAFFINE"") source.AR_SU.SUQEVEN,if (source.AR_SU.SUTRT==""CAFFINE"") source.AR_SU.SUQMORN)",,,,,FA_01.FA_NOR_SU.FASTRESN
FA_01,FA_NOR_SU,FAORRES,Char,200,"normalize(if (source.AR_SU.SUTRT==""CAFFINE"") lrtrim(left(put(source.AR_SU.SUQAFT,""BEST16.""))), 
if (source.AR_SU.SUTRT==""CAFFINE"") lrtrim(left(put(source.AR_SU.SUQEVEN,""BEST16.""))), 
if (source.AR_SU.SUTRT==""CAFFINE"") lrtrim(left(put(source.AR_SU.SUQMORN,""BEST16.""))))",,,,,FA_01.FA_NOR_SU.FAORRES
FA_01,FA_NOR_SU,FAOBJ,Char,200,"normalize(""CAFFINE"",""CAFFINE"",""CAFFINE"")",,,,,FA_01.FA_NOR_SU.FAOBJ
FA_01,FA_NOR_SU,FATEST,Char,200,"normalize(""Average Caffeine in Afternoon"",""Average Caffeine in Evening"",""Average Caffeine in Morning"")",,,,,FA_01.FA_NOR_SU.FATEST
FA_01,FA_NOR_SU,FATESTCD,Char,200,"normalize(if(source.AR_SU.SUQAFT != null) ""SUQAFT"" else '',if(source.AR_SU.SUQEVEN != null) ""SUQEVEN"" else '',if(source.AR_SU.SUQMORN != null) ""SUQMORN"" else '')",,,,,FA_01.FA_NOR_SU.FATESTCD
FA_01,FA_NOR_SU,FASEQ,Num,8,"normalize(source.AR_SU.SUSEQ +10000,source.AR_SU.SUSEQ +20000,source.AR_SU.SUSEQ +30000)",,,,,FA_01.FA_NOR_SU.FASEQ
CM_01,CL_AR_CM,CMSPID,Char,20,source.AR_CM.CMSPID,CM.PART_AR_CM.CMSPID,,,,CM_01.CL_AR_CM.CMSPID
CM_01,CL_AR_CM,CMTRT,Char,255,lrtrim(source.AR_CM.CMTRT),CM.PART_AR_CM.CMTRT,,,,CM_01.CL_AR_CM.CMTRT
CM_01,CL_AR_CM,CMCAT,Char,80,"""PRIOR OR CONCOMITANT MEDICATION""",CM.PART_AR_CM.CMCAT,,,,CM_01.CL_AR_CM.CMCAT
CM_01,CL_AR_CM,CMDOSE,Num,8,if(source.AR_CM.INDDOS!= null) source.AR_CM.INDDOS,CM.PART_AR_CM.CMDOSE,,,,CM_01.CL_AR_CM.CMDOSE
CM_01,CL_AR_CM,CMDOSU,Char,25,"if (source.AR_CM.INDDOS!=NULL) tranwrd(source.AR_CM.INDVDOSU ,'DRIP','DROP')
else if (source.AR_CM.CMDOSTOT!=NULL) tranwrd(source.AR_CM.CMDOSU ,'DRIP','DROP')",CM.PART_AR_CM.CMDOSU,,,,CM_01.CL_AR_CM.CMDOSU
CM_01,CL_AR_CM,CMENDTC,Char,19,source.AR_CM.CMENDTC,CM.PART_AR_CM.CMENDTC,,,,CM_01.CL_AR_CM.CMENDTC
CM_01,CL_AR_CM,CMENRF,Char,15,source.AR_CM.CMENRF,CM.PART_AR_CM.CMENRF,,,,CM_01.CL_AR_CM.CMENRF
CM_01,CL_AR_CM,CMSTDTC,Char,19,source.AR_CM.CMSTDTC,CM.PART_AR_CM.CMSTDTC,,,,CM_01.CL_AR_CM.CMSTDTC
CM_01,CL_AR_CM,CMSTRF,Char,15,source.AR_CM.CMSTRF,CM.PART_AR_CM.CMSTRF,,,,CM_01.CL_AR_CM.CMSTRF
CM_01,CL_AR_CM,CMDOSFRM,Char,70,source.AR_CM.CMDOSFRM,CM.PART_AR_CM.CMDOSFRM,,,,CM_01.CL_AR_CM.CMDOSFRM
CM_01,CL_AR_CM,CMDOSTOT,Num,8,source.AR_CM.CMDOSTOT,CM.PART_AR_CM.CMDOSTOT,,,,CM_01.CL_AR_CM.CMDOSTOT
CM_01,CL_AR_CM,CMINDC,Char,200,source.AR_CM.CMINDC,CM.PART_AR_CM.CMINDC,,,,CM_01.CL_AR_CM.CMINDC
CM_01,CL_AR_CM,CMROUTE,Char,50,source.AR_CM.CMROUTE,CM.PART_AR_CM.CMROUTE,,,,CM_01.CL_AR_CM.CMROUTE
CM_01,CL_AR_CM,CMPSTRG,Num,8,source.AR_CM.CMDOSE,CM.PART_AR_CM.CMPSTRG,,,,CM_01.CL_AR_CM.CMPSTRG
CM_01,CL_AR_CM,CMSCAT,Char,200,source.AR_CM.CMCAT,CM.PART_AR_CM.CMSCAT,,,,CM_01.CL_AR_CM.CMSCAT
CM_01,CL_AR_CM,STUDYID,Char,12,source.AR_CM.STUDYID,CM.PART_AR_CM.STUDYID,,,,CM_01.CL_AR_CM.STUDYID
CM_01,CL_AR_CM,USUBJID,Char,30,source.AR_CM.USUBJID,CM.PART_AR_CM.USUBJID,,,,CM_01.CL_AR_CM.USUBJID
CM_01,CL_AR_CM,VISIT,Char,60,source.AR_CM.VISIT,CM.PART_AR_CM.VISIT,,,,CM_01.CL_AR_CM.VISIT
CM_01,CL_AR_CM,CMSEQ,Num,8,source.AR_CM.CMSEQ,CM.PART_AR_CM.CMSEQ,,,,CM_01.CL_AR_CM.CMSEQ
CM_01,CL_AR_CM,CMGRPID,Char,40,source.AR_CM.CMGRPID,CM.PART_AR_CM.CMGRPID,,,,CM_01.CL_AR_CM.CMGRPID
CM_01,CL_AR_CM,VISITNUM,Num,8,source.AR_CM.VISITNUM,CM.PART_AR_CM.VISITNUM,,,,CM_01.CL_AR_CM.VISITNUM
CM_01,CL_AR_CM,CMADJ,Char,200,source.AR_CM.CMADJ,CM.PART_AR_CM.CMADJ,,,,CM_01.CL_AR_CM.CMADJ
CM_01,CL_AR_CM,CMDOSFRQ,Char,50,source.AR_CM.CMDOSFRQ,CM.PART_AR_CM.CMDOSFRQ,,,,CM_01.CL_AR_CM.CMDOSFRQ
CM_01,CL_AR_CM,CMCLAS,Char,100,"if((source.AR_CM.WCLAS01 !='') && (source.AR_CM.WCLAS02 ='')) source.AR_CM.WCLAS01
else if((source.AR_CM.WCLAS01 !='') && (source.AR_CM.WCLAS02 !='')) 'MULTIPLE'
else source.AR_CM.CMCLAS",CM.PART_AR_CM.CMCLAS,,,,CM_01.CL_AR_CM.CMCLAS
CM_01,CL_AR_CM,CMCLASCD,Char,80,"if((source.AR_CM.WCLSCD01 !='') && (source.AR_CM.WCLSCD02 ='')) source.AR_CM.WCLSCD01
else if((source.AR_CM.WCLSCD01 !='') && (source.AR_CM.WCLSCD02 !='')) 'MULTIPLE'
else source.AR_CM.CMCLASCD",CM.PART_AR_CM.CMCLASCD,,,,CM_01.CL_AR_CM.CMCLASCD
CM_01,CL_AR_CM,CMDECOD,Char,1500,"if(source.AR_CM.WDECOD ='') source.AR_CM.CMDECOD
else source.AR_CM.WDECOD",CM.PART_AR_CM.CMDECOD,,"""CLINICAL STUDY SPONSOR""",,CM_01.CL_AR_CM.CMDECOD
CM_01,CL_AR_CM,CMLAT,Char,40,source.AR_CM.CMLAT,CM.PART_AR_CM.CMLAT,,,,CM_01.CL_AR_CM.CMLAT
CM_01,CL_AR_CM,CMLOC,Char,80,source.AR_CM.CMLOC,CM.PART_AR_CM.CMLOC,,,,CM_01.CL_AR_CM.CMLOC
CM_01,CL_AR_CM,EPOCH,Char,40,"if (length(compress(source.AR_CM.CMSTDTC)) < 10 )  ''
else source.AR_CM.EPOCH",CM.PART_AR_CM.EPOCH,,,,CM_01.CL_AR_CM.EPOCH
CM_01,CL_AR_CM,TAETORD,Num,8,source.AR_CM.TAETORD,CM.PART_AR_CM.TAETORD,,,,CM_01.CL_AR_CM.TAETORD
CM_01,CL_AR_CM,CMENDY,Num,8,"if (length(compress(source.AR_CM.CMENDTC)) < 10 )  null
else source.AR_CM.CMENDY",CM.PART_AR_CM.CMENDY,,,,CM_01.CL_AR_CM.CMENDY
CM_01,CL_AR_CM,CMSTDY,Num,8,"if (length(compress(source.AR_CM.CMSTDTC)) < 10 )  null
else source.AR_CM.CMSTDY",CM.PART_AR_CM.CMSTDY,,,,CM_01.CL_AR_CM.CMSTDY
CM_01,CL_AR_CM,DOMAIN,Char,2,'CM',CM.PART_AR_CM.DOMAIN,,,,CM_01.CL_AR_CM.DOMAIN
CM_01,CL_AR_CM,CMDRUG,Char,1500,"if(source.AR_CM.WDRUG ='') source.AR_CM.CMDRUG
else source.AR_CM.WDRUG",CM.PART_AR_CM.CMDRUG,,"""CLINICAL STUDY SPONSOR""",,CM_01.CL_AR_CM.CMDRUG
CM_01,CL_AR_CM,ELEMENT,Char,150,source.AR_CM.ELEMENT,CM.PART_AR_CM.ELEMENT,,,,CM_01.CL_AR_CM.ELEMENT
CM_01,CL_AR_CM,ETCD,Char,8,source.AR_CM.ETCD,CM.PART_AR_CM.ETCD,,,,CM_01.CL_AR_CM.ETCD
CM_01,CL_AR_CM,MAXDOS,Char,10,source.AR_CM.MAXDOS,CM.PART_AR_CM.MAXDOS,,,,CM_01.CL_AR_CM.MAXDOS
CM_01,CL_AR_CM,MAXVDOSU,Char,25,"if(source.AR_CM.MAXVDOSU = 'DRIP') 'DROP'
else  source.AR_CM.MAXVDOSU",CM.PART_AR_CM.MAXVDOSU,,,,CM_01.CL_AR_CM.MAXVDOSU
CM_01,CL_AR_CM,MINDOS,Char,25,source.AR_CM.MINDOS,CM.PART_AR_CM.MINDOS,,,,CM_01.CL_AR_CM.MINDOS
CM_01,CL_AR_CM,MINVDOSU,Char,25,"if(source.AR_CM.MINVDOSU = 'DRIP') 'DROP'
else source.AR_CM.MINVDOSU",CM.PART_AR_CM.MINVDOSU,,,,CM_01.CL_AR_CM.MINVDOSU
CM_01,CL_AR_CM,CMRSDISC,Char,200,source.AR_CM.RSNMDSC,CM.PART_AR_CM.CMRSDISC,,,,CM_01.CL_AR_CM.CMRSDISC
CM_01,CL_AR_CM,WCLAS01,Char,110,"if((source.AR_CM.WCLAS01 !='') && (source.AR_CM.WCLAS02 ='')) ''
else source.AR_CM.WCLAS01",CM.PART_AR_CM.WCLAS01,,,,CM_01.CL_AR_CM.WCLAS01
CM_01,CL_AR_CM,WCLAS02,Char,110,source.AR_CM.WCLAS02,CM.PART_AR_CM.WCLAS02,,,,CM_01.CL_AR_CM.WCLAS02
CM_01,CL_AR_CM,WCLAS03,Char,110,source.AR_CM.WCLAS03,CM.PART_AR_CM.WCLAS03,,,,CM_01.CL_AR_CM.WCLAS03
CM_01,CL_AR_CM,WCLAS04,Char,110,source.AR_CM.WCLAS04,CM.PART_AR_CM.WCLAS04,,,,CM_01.CL_AR_CM.WCLAS04
CM_01,CL_AR_CM,WCLAS05,Char,110,source.AR_CM.WCLAS05,CM.PART_AR_CM.WCLAS05,,,,CM_01.CL_AR_CM.WCLAS05
CM_01,CL_AR_CM,WCLAS06,Char,110,source.AR_CM.WCLAS06,CM.PART_AR_CM.WCLAS06,,,,CM_01.CL_AR_CM.WCLAS06
CM_01,CL_AR_CM,WCLAS07,Char,110,source.AR_CM.WCLAS07,CM.PART_AR_CM.WCLAS07,,,,CM_01.CL_AR_CM.WCLAS07
CM_01,CL_AR_CM,WCLAS08,Char,110,source.AR_CM.WCLAS08,CM.PART_AR_CM.WCLAS08,,,,CM_01.CL_AR_CM.WCLAS08
CM_01,CL_AR_CM,WCLAS09,Char,110,source.AR_CM.WCLAS09,CM.PART_AR_CM.WCLAS09,,,,CM_01.CL_AR_CM.WCLAS09
CM_01,CL_AR_CM,WCLAS10,Char,110,source.AR_CM.WCLAS10,CM.PART_AR_CM.WCLAS10,,,,CM_01.CL_AR_CM.WCLAS10
CM_01,CL_AR_CM,WCLAS11,Char,110,source.AR_CM.WCLAS11,CM.PART_AR_CM.WCLAS11,,,,CM_01.CL_AR_CM.WCLAS11
CM_01,CL_AR_CM,WCLAS12,Char,110,source.AR_CM.WCLAS12,CM.PART_AR_CM.WCLAS12,,,,CM_01.CL_AR_CM.WCLAS12
CM_01,CL_AR_CM,WCLAS13,Char,110,source.AR_CM.WCLAS13,CM.PART_AR_CM.WCLAS13,,,,CM_01.CL_AR_CM.WCLAS13
CM_01,CL_AR_CM,WCLAS14,Char,110,source.AR_CM.WCLAS14,CM.PART_AR_CM.WCLAS14,,,,CM_01.CL_AR_CM.WCLAS14
CM_01,CL_AR_CM,WCLAS15,Char,110,source.AR_CM.WCLAS15,CM.PART_AR_CM.WCLAS15,,,,CM_01.CL_AR_CM.WCLAS15
CM_01,CL_AR_CM,WCLAS16,Char,110,source.AR_CM.WCLAS16,CM.PART_AR_CM.WCLAS16,,,,CM_01.CL_AR_CM.WCLAS16
CM_01,CL_AR_CM,WCLAS17,Char,110,source.AR_CM.WCLAS17,CM.PART_AR_CM.WCLAS17,,,,CM_01.CL_AR_CM.WCLAS17
CM_01,CL_AR_CM,WCLAS18,Char,110,source.AR_CM.WCLAS18,CM.PART_AR_CM.WCLAS18,,,,CM_01.CL_AR_CM.WCLAS18
CM_01,CL_AR_CM,WCLAS19,Char,110,source.AR_CM.WCLAS19,CM.PART_AR_CM.WCLAS19,,,,CM_01.CL_AR_CM.WCLAS19
CM_01,CL_AR_CM,WCLAS20,Char,110,source.AR_CM.WCLAS20,CM.PART_AR_CM.WCLAS20,,,,CM_01.CL_AR_CM.WCLAS20
CM_01,CL_AR_CM,WCLAS21,Char,110,source.AR_CM.WCLAS21,CM.PART_AR_CM.WCLAS21,,,,CM_01.CL_AR_CM.WCLAS21
CM_01,CL_AR_CM,WCLAS22,Char,110,source.AR_CM.WCLAS22,CM.PART_AR_CM.WCLAS22,,,,CM_01.CL_AR_CM.WCLAS22
CM_01,CL_AR_CM,WCLAS23,Char,110,source.AR_CM.WCLAS23,CM.PART_AR_CM.WCLAS23,,,,CM_01.CL_AR_CM.WCLAS23
CM_01,CL_AR_CM,WCLAS24,Char,110,source.AR_CM.WCLAS24,CM.PART_AR_CM.WCLAS24,,,,CM_01.CL_AR_CM.WCLAS24
CM_01,CL_AR_CM,WCLAS25,Char,110,source.AR_CM.WCLAS25,CM.PART_AR_CM.WCLAS25,,,,CM_01.CL_AR_CM.WCLAS25
CM_01,CL_AR_CM,WCLAS26,Char,110,source.AR_CM.WCLAS26,CM.PART_AR_CM.WCLAS26,,,,CM_01.CL_AR_CM.WCLAS26
CM_01,CL_AR_CM,WCLAS27,Char,110,source.AR_CM.WCLAS27,CM.PART_AR_CM.WCLAS27,,,,CM_01.CL_AR_CM.WCLAS27
CM_01,CL_AR_CM,WCLAS28,Char,110,source.AR_CM.WCLAS28,CM.PART_AR_CM.WCLAS28,,,,CM_01.CL_AR_CM.WCLAS28
CM_01,CL_AR_CM,WCLAS29,Char,110,source.AR_CM.WCLAS29,CM.PART_AR_CM.WCLAS29,,,,CM_01.CL_AR_CM.WCLAS29
CM_01,CL_AR_CM,WCLAS30,Char,110,source.AR_CM.WCLAS30,CM.PART_AR_CM.WCLAS30,,,,CM_01.CL_AR_CM.WCLAS30
CM_01,CL_AR_CM,WCLSCD01,Char,10,"if((source.AR_CM.WCLSCD01 !='') && (source.AR_CM.WCLSCD02 ='')) ''
else source.AR_CM.WCLSCD01",CM.PART_AR_CM.WCLSCD01,,,,CM_01.CL_AR_CM.WCLSCD01
CM_01,CL_AR_CM,WCLSCD02,Char,10,source.AR_CM.WCLSCD02,CM.PART_AR_CM.WCLSCD02,,,,CM_01.CL_AR_CM.WCLSCD02
CM_01,CL_AR_CM,WCLSCD03,Char,10,source.AR_CM.WCLSCD03,CM.PART_AR_CM.WCLSCD03,,,,CM_01.CL_AR_CM.WCLSCD03
CM_01,CL_AR_CM,WCLSCD04,Char,10,source.AR_CM.WCLSCD04,CM.PART_AR_CM.WCLSCD04,,,,CM_01.CL_AR_CM.WCLSCD04
CM_01,CL_AR_CM,WCLSCD05,Char,10,source.AR_CM.WCLSCD05,CM.PART_AR_CM.WCLSCD05,,,,CM_01.CL_AR_CM.WCLSCD05
CM_01,CL_AR_CM,WCLSCD06,Char,10,source.AR_CM.WCLSCD06,CM.PART_AR_CM.WCLSCD06,,,,CM_01.CL_AR_CM.WCLSCD06
CM_01,CL_AR_CM,WCLSCD07,Char,10,source.AR_CM.WCLSCD07,CM.PART_AR_CM.WCLSCD07,,,,CM_01.CL_AR_CM.WCLSCD07
CM_01,CL_AR_CM,WCLSCD08,Char,10,source.AR_CM.WCLSCD08,CM.PART_AR_CM.WCLSCD08,,,,CM_01.CL_AR_CM.WCLSCD08
CM_01,CL_AR_CM,WCLSCD09,Char,10,source.AR_CM.WCLSCD09,CM.PART_AR_CM.WCLSCD09,,,,CM_01.CL_AR_CM.WCLSCD09
CM_01,CL_AR_CM,WCLSCD10,Char,10,source.AR_CM.WCLSCD10,CM.PART_AR_CM.WCLSCD10,,,,CM_01.CL_AR_CM.WCLSCD10
CM_01,CL_AR_CM,WCLSCD11,Char,10,source.AR_CM.WCLSCD11,CM.PART_AR_CM.WCLSCD11,,,,CM_01.CL_AR_CM.WCLSCD11
CM_01,CL_AR_CM,WCLSCD12,Char,10,source.AR_CM.WCLSCD12,CM.PART_AR_CM.WCLSCD12,,,,CM_01.CL_AR_CM.WCLSCD12
CM_01,CL_AR_CM,WCLSCD13,Char,10,source.AR_CM.WCLSCD13,CM.PART_AR_CM.WCLSCD13,,,,CM_01.CL_AR_CM.WCLSCD13
CM_01,CL_AR_CM,WCLSCD14,Char,10,source.AR_CM.WCLSCD14,CM.PART_AR_CM.WCLSCD14,,,,CM_01.CL_AR_CM.WCLSCD14
CM_01,CL_AR_CM,WCLSCD15,Char,10,source.AR_CM.WCLSCD15,CM.PART_AR_CM.WCLSCD15,,,,CM_01.CL_AR_CM.WCLSCD15
CM_01,CL_AR_CM,WCLSCD16,Char,10,source.AR_CM.WCLSCD16,CM.PART_AR_CM.WCLSCD16,,,,CM_01.CL_AR_CM.WCLSCD16
CM_01,CL_AR_CM,WCLSCD17,Char,10,source.AR_CM.WCLSCD17,CM.PART_AR_CM.WCLSCD17,,,,CM_01.CL_AR_CM.WCLSCD17
CM_01,CL_AR_CM,WCLSCD18,Char,10,source.AR_CM.WCLSCD18,CM.PART_AR_CM.WCLSCD18,,,,CM_01.CL_AR_CM.WCLSCD18
CM_01,CL_AR_CM,WCLSCD19,Char,10,source.AR_CM.WCLSCD19,CM.PART_AR_CM.WCLSCD19,,,,CM_01.CL_AR_CM.WCLSCD19
CM_01,CL_AR_CM,WCLSCD20,Char,10,source.AR_CM.WCLSCD20,CM.PART_AR_CM.WCLSCD20,,,,CM_01.CL_AR_CM.WCLSCD20
CM_01,CL_AR_CM,WCLSCD21,Char,10,source.AR_CM.WCLSCD21,CM.PART_AR_CM.WCLSCD21,,,,CM_01.CL_AR_CM.WCLSCD21
CM_01,CL_AR_CM,WCLSCD22,Char,10,source.AR_CM.WCLSCD22,CM.PART_AR_CM.WCLSCD22,,,,CM_01.CL_AR_CM.WCLSCD22
CM_01,CL_AR_CM,WCLSCD23,Char,10,source.AR_CM.WCLSCD23,CM.PART_AR_CM.WCLSCD23,,,,CM_01.CL_AR_CM.WCLSCD23
CM_01,CL_AR_CM,WCLSCD24,Char,10,source.AR_CM.WCLSCD24,CM.PART_AR_CM.WCLSCD24,,,,CM_01.CL_AR_CM.WCLSCD24
CM_01,CL_AR_CM,WCLSCD25,Char,10,source.AR_CM.WCLSCD25,CM.PART_AR_CM.WCLSCD25,,,,CM_01.CL_AR_CM.WCLSCD25
CM_01,CL_AR_CM,WCLSCD26,Char,10,source.AR_CM.WCLSCD26,CM.PART_AR_CM.WCLSCD26,,,,CM_01.CL_AR_CM.WCLSCD26
CM_01,CL_AR_CM,WCLSCD27,Char,10,source.AR_CM.WCLSCD27,CM.PART_AR_CM.WCLSCD27,,,,CM_01.CL_AR_CM.WCLSCD27
CM_01,CL_AR_CM,WCLSCD28,Char,10,source.AR_CM.WCLSCD28,CM.PART_AR_CM.WCLSCD28,,,,CM_01.CL_AR_CM.WCLSCD28
CM_01,CL_AR_CM,WCLSCD29,Char,10,source.AR_CM.WCLSCD29,CM.PART_AR_CM.WCLSCD29,,,,CM_01.CL_AR_CM.WCLSCD29
CM_01,CL_AR_CM,WCLSCD30,Char,10,source.AR_CM.WCLSCD30,CM.PART_AR_CM.WCLSCD30,,,,CM_01.CL_AR_CM.WCLSCD30
CM_01,CL_AR_CM,CMDOSTXT,Char,200,"if((source.AR_CM.INDDOS==NULL) && (source.AR_CM.MAXDOS !='') && (source.AR_CM.MINDOS ='')) compress(concat(source.AR_CM.MAXDOS, ""-"", source.AR_CM.MINDOS))",CM.PART_AR_CM.CMDOSTXT,,,,CM_01.CL_AR_CM.CMDOSTXT
CM_01,CL_AR_CM,STDYRLEP,Char,200,"lrtrim(left(put(source.AR_CM.STDYRLEP ,""BEST16."")))",CM.PART_AR_CM.STDYRLEP,,,,CM_01.CL_AR_CM.STDYRLEP
CM_01,CL_AR_CM,SPDYRLEP,Char,200,"lrtrim(left(put(source.AR_CM.SPDYRLEP ,""BEST16."")))",CM.PART_AR_CM.SPDYRLEP,,,,CM_01.CL_AR_CM.SPDYRLEP
ML_01,CL_PEDI1_SU,STUDYID,Char,12,source.AR_PEDI1_SU.STUDYID,ML.PART_PEDI1_SU.STUDYID,,,,ML_01.CL_PEDI1_SU.STUDYID
ML_01,CL_PEDI1_SU,USUBJID,Char,30,source.AR_PEDI1_SU.USUBJID,ML.PART_PEDI1_SU.USUBJID,,,,ML_01.CL_PEDI1_SU.USUBJID
ML_01,CL_PEDI1_SU,VISIT,Char,60,source.AR_PEDI1_SU.VISIT,ML.PART_PEDI1_SU.VISIT,,,,ML_01.CL_PEDI1_SU.VISIT
ML_01,CL_PEDI1_SU,MLSEQ,Num,8,source.AR_PEDI1_SU.SUSEQ,ML.PART_PEDI1_SU.MLSEQ,,,,ML_01.CL_PEDI1_SU.MLSEQ
ML_01,CL_PEDI1_SU,MLGRPID,Char,40,source.AR_PEDI1_SU.SUGRPID,ML.PART_PEDI1_SU.MLGRPID,,,,ML_01.CL_PEDI1_SU.MLGRPID
ML_01,CL_PEDI1_SU,VISITNUM,Num,8,source.AR_PEDI1_SU.VISITNUM,ML.PART_PEDI1_SU.VISITNUM,,,,ML_01.CL_PEDI1_SU.VISITNUM
ML_01,CL_PEDI1_SU,EPOCH,Char,40,source.AR_PEDI1_SU.EPOCH,ML.PART_PEDI1_SU.EPOCH,,,,ML_01.CL_PEDI1_SU.EPOCH
ML_01,CL_PEDI1_SU,MLDTC,Char,19,source.AR_PEDI1_SU.SUDTC,ML.PART_PEDI1_SU.MLDTC,,,,ML_01.CL_PEDI1_SU.MLDTC
ML_01,CL_PEDI1_SU,MLDY,Num,8,source.AR_PEDI1_SU.SUDY,ML.PART_PEDI1_SU.MLDY,,,,ML_01.CL_PEDI1_SU.MLDY
ML_01,CL_PEDI1_SU,MLSTDTC,Char,19,source.AR_PEDI1_SU.SUSTDTC,ML.PART_PEDI1_SU.MLSTDTC,,,,ML_01.CL_PEDI1_SU.MLSTDTC
ML_01,CL_PEDI1_SU,MLSTDY,Num,8,source.AR_PEDI1_SU.SUSTDY,ML.PART_PEDI1_SU.MLSTDY,,,,ML_01.CL_PEDI1_SU.MLSTDY
ML_01,CL_PEDI1_SU,MLTRT,Char,200,"If (source.AR_PEDI1_SU.SUTRT ='BREAST FEEDING ONLY') 'BREAST MILK' 
else if (source.AR_PEDI1_SU.SUTRT = 'FORMULA FEEDING ONLY') 'FORMULA' 
else if (source.AR_PEDI1_SU.SUTRT ='COMBINATION OF BREAST FEEDING AND FORMULA FEEDING') 'BREAST MILK/FORMULA'",ML.PART_PEDI1_SU.MLTRT,,,,ML_01.CL_PEDI1_SU.MLTRT
ML_01,CL_PEDI1_SU,TAETORD,Num,8,source.AR_PEDI1_SU.TAETORD,ML.PART_PEDI1_SU.TAETORD,,,,ML_01.CL_PEDI1_SU.TAETORD
ML_01,CL_PEDI1_SU,MLCAT,Char,200,"""PEDIATRIC SUPPLEMENTAL INFORMATION""",ML.PART_PEDI1_SU.MLCAT,,,,ML_01.CL_PEDI1_SU.MLCAT
ML_01,CL_PEDI1_SU,MLPRESP,Char,200,'Y',ML.PART_PEDI1_SU.MLPRESP,,,,ML_01.CL_PEDI1_SU.MLPRESP
ML_01,CL_PEDI1_SU,MLOCCUR,Char,200,'Y',ML.PART_PEDI1_SU.MLOCCUR,,,,ML_01.CL_PEDI1_SU.MLOCCUR
ML_01,CL_PEDI1_SU,DOMAIN,Char,2,'ML',ML.PART_PEDI1_SU.DOMAIN,,,,ML_01.CL_PEDI1_SU.DOMAIN
ML_01,CL_PEDI1_SU,ELEMENT,Char,150,source.AR_PEDI1_SU.ELEMENT,ML.PART_PEDI1_SU.ELEMENT,,,,ML_01.CL_PEDI1_SU.ELEMENT
ML_01,CL_PEDI1_SU,ETCD,Char,8,source.AR_PEDI1_SU.ETCD,ML.PART_PEDI1_SU.ETCD,,,,ML_01.CL_PEDI1_SU.ETCD
RP_01,CL_PRG01_PY,STUDYID,Char,12,source.AR_PRG01_PY.STUDYID,RP.PART_PRG01_PY.STUDYID,,,,RP_01.CL_PRG01_PY.STUDYID
RP_01,CL_PRG01_PY,USUBJID,Char,30,source.AR_PRG01_PY.USUBJID,RP.PART_PRG01_PY.USUBJID,,,,RP_01.CL_PRG01_PY.USUBJID
RP_01,CL_PRG01_PY,VISIT,Char,60,source.AR_PRG01_PY.VISIT,RP.PART_PRG01_PY.VISIT,,,,RP_01.CL_PRG01_PY.VISIT
RP_01,CL_PRG01_PY,RPSEQ,Num,8,intermediate.PY_NOR_RP.RPSEQ,RP.PART_PRG01_PY.RPSEQ,,,,RP_01.CL_PRG01_PY.RPSEQ
RP_01,CL_PRG01_PY,RPGRPID,Char,40,source.AR_PRG01_PY.PYGRPID,RP.PART_PRG01_PY.RPGRPID,,,,RP_01.CL_PRG01_PY.RPGRPID
RP_01,CL_PRG01_PY,VISITNUM,Num,8,source.AR_PRG01_PY.VISITNUM,RP.PART_PRG01_PY.VISITNUM,,,,RP_01.CL_PRG01_PY.VISITNUM
RP_01,CL_PRG01_PY,ELEMENT,Char,150,source.AR_PRG01_PY.ELEMENT,RP.PART_PRG01_PY.ELEMENT,,,,RP_01.CL_PRG01_PY.ELEMENT
RP_01,CL_PRG01_PY,EPOCH,Char,40,source.AR_PRG01_PY.EPOCH,RP.PART_PRG01_PY.EPOCH,,,,RP_01.CL_PRG01_PY.EPOCH
RP_01,CL_PRG01_PY,ETCD,Char,8,source.AR_PRG01_PY.ETCD,RP.PART_PRG01_PY.ETCD,,,,RP_01.CL_PRG01_PY.ETCD
RP_01,CL_PRG01_PY,RPBLFL,Char,1,source.AR_PRG01_PY.PYBLFL,RP.PART_PRG01_PY.RPBLFL,,,,RP_01.CL_PRG01_PY.RPBLFL
RP_01,CL_PRG01_PY,RPCAT,Char,80,source.AR_PRG01_PY.PYCAT,RP.PART_PRG01_PY.RPCAT,,,,RP_01.CL_PRG01_PY.RPCAT
RP_01,CL_PRG01_PY,RPDTC,Char,19,"if(intermediate.PY_NOR_RP.RPTESTCD = ""ULTRADTC"") intermediate.TX_RPDTC.DTC
else source.AR_PRG01_PY.PYDTC",RP.PART_PRG01_PY.RPDTC,,,,RP_01.CL_PRG01_PY.RPDTC
RP_01,CL_PRG01_PY,RPDY,Num,8,"if(intermediate.PY_NOR_RP.RPTESTCD = ""ULTRADTC"") intermediate.TX_RPDTC.DY
else source.AR_PRG01_PY.PYDY",RP.PART_PRG01_PY.RPDY,,,,RP_01.CL_PRG01_PY.RPDY
RP_01,CL_PRG01_PY,RPORRES,Char,200,intermediate.PY_NOR_RP.RPORRES,RP.PART_PRG01_PY.RPORRES,,,,RP_01.CL_PRG01_PY.RPORRES
RP_01,CL_PRG01_PY,RPORRESU,Char,25,source.AR_PRG01_PY.PYORRESU,RP.PART_PRG01_PY.RPORRESU,,,,RP_01.CL_PRG01_PY.RPORRESU
RP_01,CL_PRG01_PY,RPSPID,Char,20,source.AR_PRG01_PY.PYSPID,RP.PART_PRG01_PY.RPSPID,,,,RP_01.CL_PRG01_PY.RPSPID
RP_01,CL_PRG01_PY,RPSTRESC,Char,200,intermediate.PY_NOR_RP.RPSTRESC,RP.PART_PRG01_PY.RPSTRESC,,,,RP_01.CL_PRG01_PY.RPSTRESC
RP_01,CL_PRG01_PY,RPSTRESN,Num,8,source.AR_PRG01_PY.PYSTRESN,RP.PART_PRG01_PY.RPSTRESN,,,,RP_01.CL_PRG01_PY.RPSTRESN
RP_01,CL_PRG01_PY,RPSTRESU,Char,25,source.AR_PRG01_PY.PYSTRESU,RP.PART_PRG01_PY.RPSTRESU,,,,RP_01.CL_PRG01_PY.RPSTRESU
RP_01,CL_PRG01_PY,RPTEST,Char,60,intermediate.PY_NOR_RP.RPTEST,RP.PART_PRG01_PY.RPTEST,,,,RP_01.CL_PRG01_PY.RPTEST
RP_01,CL_PRG01_PY,RPTESTCD,Char,8,intermediate.PY_NOR_RP.RPTESTCD,RP.PART_PRG01_PY.RPTESTCD,,,,RP_01.CL_PRG01_PY.RPTESTCD
RP_01,CL_PRG01_PY,TAETORD,Num,8,source.AR_PRG01_PY.TAETORD,RP.PART_PRG01_PY.TAETORD,,,,RP_01.CL_PRG01_PY.TAETORD
RP_01,CL_PRG01_PY,VISITDY,Num,8,source.AR_PRG01_PY.VISITDY,RP.PART_PRG01_PY.VISITDY,,,,RP_01.CL_PRG01_PY.VISITDY
RP_01,CL_PRG01_PY,DOMAIN,Char,2,'RP',RP.PART_PRG01_PY.DOMAIN,,,,RP_01.CL_PRG01_PY.DOMAIN
RP_01,CL_PRG01_PY,PYCNF1,Char,200,source.AR_PRG01_PY.PYCNFPT,RP.PART_PRG01_PY.PYCNF1,,,,RP_01.CL_PRG01_PY.PYCNF1
RP_01,CL_PRG01_PY,PYCNF2,Char,200,source.AR_PRG01_PY.PYCNFUNK,RP.PART_PRG01_PY.PYCNF2,,,,RP_01.CL_PRG01_PY.PYCNF2
RP_01,CL_PRG01_PY,PYCNF3,Char,200,source.AR_PRG01_PY.PYCNFUS,RP.PART_PRG01_PY.PYCNF3,,,,RP_01.CL_PRG01_PY.PYCNF3
RP_01,CL_PRG01_PY,RELBLD,Char,200,source.AR_PRG01_PY.RELBLD,RP.PART_PRG01_PY.RELBLD,,,,RP_01.CL_PRG01_PY.RELBLD
RP_01,CL_PRG01_PY,RPSCAT,Char,80,source.AR_PRG01_PY.PYOBJ,RP.PART_PRG01_PY.RPSCAT,,,,RP_01.CL_PRG01_PY.RPSCAT
RP_01,CL_PRG01_PY,CABNCOM,Char,200,intermediate.PY_NOR_RP.CABNCOM,RP.PART_PRG01_PY.CABNCOM,,,,RP_01.CL_PRG01_PY.CABNCOM
RP_01,CL_PRG02_PX,VISITNUM,Num,8,source.AR_PRG02_PX.VISITNUM,RP.PART_PRG02_PX.VISITNUM,,,,RP_01.CL_PRG02_PX.VISITNUM
RP_01,CL_PRG02_PX,ELEMENT,Char,150,source.AR_PRG02_PX.ELEMENT,RP.PART_PRG02_PX.ELEMENT,,,,RP_01.CL_PRG02_PX.ELEMENT
RP_01,CL_PRG02_PX,EPOCH,Char,40,source.AR_PRG02_PX.EPOCH,RP.PART_PRG02_PX.EPOCH,,,,RP_01.CL_PRG02_PX.EPOCH
RP_01,CL_PRG02_PX,ETCD,Char,8,source.AR_PRG02_PX.ETCD,RP.PART_PRG02_PX.ETCD,,,,RP_01.CL_PRG02_PX.ETCD
RP_01,CL_PRG02_PX,RPSPID,Char,20,source.AR_PRG02_PX.PXSPID,RP.PART_PRG02_PX.RPSPID,,,,RP_01.CL_PRG02_PX.RPSPID
RP_01,CL_PRG02_PX,RPDTC,Char,19,source.AR_PRG02_PX.PXSTDTC,RP.PART_PRG02_PX.RPDTC,,,,RP_01.CL_PRG02_PX.RPDTC
RP_01,CL_PRG02_PX,RPDY,Num,8,source.AR_PRG02_PX.PXSTDY,RP.PART_PRG02_PX.RPDY,,,,RP_01.CL_PRG02_PX.RPDY
RP_01,CL_PRG02_PX,TAETORD,Num,8,source.AR_PRG02_PX.TAETORD,RP.PART_PRG02_PX.TAETORD,,,,RP_01.CL_PRG02_PX.TAETORD
RP_01,CL_PRG02_PX,PXINDBMT,Char,60,source.AR_PRG02_PX.PXINDBMT,RP.PART_PRG02_PX.PXINDBMT,,,,RP_01.CL_PRG02_PX.PXINDBMT
RP_01,CL_PRG02_PX,PXINDCD,Char,60,source.AR_PRG02_PX.PXINDCD,RP.PART_PRG02_PX.PXINDCD,,,,RP_01.CL_PRG02_PX.PXINDCD
RP_01,CL_PRG02_PX,PXINDCPP,Char,60,source.AR_PRG02_PX.PXINDCPP,RP.PART_PRG02_PX.PXINDCPP,,,,RP_01.CL_PRG02_PX.PXINDCPP
RP_01,CL_PRG02_PX,PXINDFD,Char,60,source.AR_PRG02_PX.PXINDFD,RP.PART_PRG02_PX.PXINDFD,,,,RP_01.CL_PRG02_PX.PXINDFD
RP_01,CL_PRG02_PX,PXINDFPD,Char,60,source.AR_PRG02_PX.PXINDFPD,RP.PART_PRG02_PX.PXINDFPD,,,,RP_01.CL_PRG02_PX.PXINDFPD
RP_01,CL_PRG02_PX,PXINDPDM,Char,60,source.AR_PRG02_PX.PXINDPDM,RP.PART_PRG02_PX.PXINDPDM,,,,RP_01.CL_PRG02_PX.PXINDPDM
RP_01,CL_PRG02_PX,PXINDRES,Char,60,source.AR_PRG02_PX.PXINDRES,RP.PART_PRG02_PX.PXINDRES,,,,RP_01.CL_PRG02_PX.PXINDRES
RP_01,CL_PRG02_PX,PXINDV,Char,80,source.AR_PRG02_PX.PXINDV,RP.PART_PRG02_PX.PXINDV,,,,RP_01.CL_PRG02_PX.PXINDV
RP_01,CL_PRG02_PX,PRCOEXCO,Char,200,"if((source.AR_PRG02_PX.PXPRDEXM!='') && (AR_PRG02_PX.PXPRDEXM!=""N"")) source.AR_PRG02_PX.PXPRDEXM",RP.PART_PRG02_PX.PRCOEXCO,,,,RP_01.CL_PRG02_PX.PRCOEXCO
RP_01,CL_PRG02_PX,FETALLDT,Char,200,"if(source.AR_PRG02_PX.PXCAT=""FETAL LOSS"" ) source.AR_PRG02_PX.PXTERM
else ''",RP.PART_PRG02_PX.FETALLDT,,,,RP_01.CL_PRG02_PX.FETALLDT
RP_01,CL_PRG02_PX,DOMAIN,Char,2,'RP',RP.PART_PRG02_PX.DOMAIN,,,,RP_01.CL_PRG02_PX.DOMAIN
RP_01,CL_PRG02_PX,RPCAT,Char,200,"if(source.AR_PRG02_PX.PXSTDTC!="""")  ""CURRENT PREGNANCIES""
else ""PREVIOUS PREGNANCIES""",RP.PART_PRG02_PX.RPCAT,,,,RP_01.CL_PRG02_PX.RPCAT
RP_01,CL_PRG02_PX,RPORRES,Char,200,intermediate.PX_NOR_RP.RPORRES,RP.PART_PRG02_PX.RPORRES,,,,RP_01.CL_PRG02_PX.RPORRES
RP_01,CL_PRG02_PX,RPSEQ,Num,8,intermediate.PX_NOR_RP.RPSEQ,RP.PART_PRG02_PX.RPSEQ,,,,RP_01.CL_PRG02_PX.RPSEQ
RP_01,CL_PRG02_PX,RPTEST,Char,200,intermediate.PX_NOR_RP.RPTEST,RP.PART_PRG02_PX.RPTEST,,,,RP_01.CL_PRG02_PX.RPTEST
RP_01,CL_PRG02_PX,RPTESTCD,Char,200,intermediate.PX_NOR_RP.RPTESTCD,RP.PART_PRG02_PX.RPTESTCD,,,,RP_01.CL_PRG02_PX.RPTESTCD
RP_01,CL_PRG02_PX,STUDYID,Char,12,source.AR_PRG02_PX.STUDYID,RP.PART_PRG02_PX.STUDYID,,,,RP_01.CL_PRG02_PX.STUDYID
RP_01,CL_PRG02_PX,USUBJID,Char,30,source.AR_PRG02_PX.USUBJID,RP.PART_PRG02_PX.USUBJID,,,,RP_01.CL_PRG02_PX.USUBJID
RP_01,CL_PRG02_PX,VISIT,Char,60,source.AR_PRG02_PX.VISIT,RP.PART_PRG02_PX.VISIT,,,,RP_01.CL_PRG02_PX.VISIT
RP_01,CL_PRG02_PX,RPGRPID,Char,40,source.AR_PRG02_PX.PXGRPID,RP.PART_PRG02_PX.RPGRPID,,,,RP_01.CL_PRG02_PX.RPGRPID
RP_01,CL_PRG02_PX,RPSCAT,Char,200,"if(source.AR_PRG02_PX.PXTERM ='VAGINAL LIVE BIRTH')  'LIVE BIRTH'
else if(source.AR_PRG02_PX.PXTERM ='C-SECTIONI LIVE BIRTH')  'LIVE BIRTH'
else ''",RP.PART_PRG02_PX.RPSCAT,,,,RP_01.CL_PRG02_PX.RPSCAT
RP_01,CL_PRG02_PX,RPSTRESC,Char,200,intermediate.PX_NOR_RP.RPSTRESC,RP.PART_PRG02_PX.RPSTRESC,,,,RP_01.CL_PRG02_PX.RPSTRESC
RP_01,MER_RP,,,0,,,,,,RP_01.MER_RP.
RP_01,PY_NOR_RP,RPORRES,Char,200,"normalize(if ((source.AR_PRG01_PY.PYTESTCD==""EGESTAGE"")&&(source.AR_PRG01_PY.PYDTC!="""")) source.AR_PRG01_PY.PYDTC,
if(source.AR_PRG01_PY.PYTESTCD in(""CABNIND"", ""MSCRGIND"", ""STILBIND"") &&  (source.AR_PRG01_PY.PYORRES in(""N"" , ""NA""))) 
source.AR_PRG01_PY.PYORRES 
else if(source.AR_PRG01_PY.PYTESTCD in(""CABNIND"", ""MSCRGIND"", ""STILBIND"") &&  (source.AR_PRG01_PY.PYORRES != """" )) ""Y"" 
else source.AR_PRG01_PY.PYORRES)",,,,,RP_01.PY_NOR_RP.RPORRES
RP_01,PY_NOR_RP,RPSEQ,Num,8,"normalize(source.AR_PRG01_PY.PYSEQ +10000,source.AR_PRG01_PY.PYSEQ +20000)",,,,,RP_01.PY_NOR_RP.RPSEQ
RP_01,PY_NOR_RP,RPSTRESC,Char,200,"normalize(if ((source.AR_PRG01_PY.PYTESTCD==""EGESTAGE"")&&(source.AR_PRG01_PY.PYDTC!="""")) source.AR_PRG01_PY.PYDTC,
if(source.AR_PRG01_PY.PYTESTCD in(""CABNIND"", ""MSCRGIND"", ""STILBIND"") &&  (source.AR_PRG01_PY.PYORRES in(""N"" , ""NA""))) 
source.AR_PRG01_PY.PYSTRESC 
else if(source.AR_PRG01_PY.PYTESTCD in(""CABNIND"", ""MSCRGIND"", ""STILBIND"") &&  (source.AR_PRG01_PY.PYORRES != """" )) ""Y"" 
else source.AR_PRG01_PY.PYSTRESC)",,,,,RP_01.PY_NOR_RP.RPSTRESC
RP_01,PY_NOR_RP,RPTEST,Char,40,"normalize(if((source.AR_PRG01_PY.PYTESTCD = ""EGESTAGE"") && (source.AR_PRG01_PY.PYDTC != '')) ""Date of Ultrasound"",source.AR_PRG01_PY.PYTEST)",,,,,RP_01.PY_NOR_RP.RPTEST
RP_01,PY_NOR_RP,RPTESTCD,Char,8,"normalize(if((source.AR_PRG01_PY.PYTESTCD = ""EGESTAGE"") && (source.AR_PRG01_PY.PYDTC != '')) ""ULTRADTC"",source.AR_PRG01_PY.PYTESTCD)",,,,,RP_01.PY_NOR_RP.RPTESTCD
RP_01,PY_NOR_RP,CABNCOM,Char,200,"normalize('',if(source.AR_PRG01_PY.PYTESTCD in(""CABNIND"") && (source.AR_PRG01_PY.PYORRES != '')  && (source.AR_PRG01_PY.PYORRES != 'N')) source.AR_PRG01_PY.PYORRES else if(source.AR_PRG01_PY.PYTESTCD in(""CABNIND"") && (source.AR_PRG01_PY.PYORRES != '')  && (source.AR_PRG01_PY.PYORRES != 'NA')) source.AR_PRG01_PY.PYORRES else "" "")",,,,,RP_01.PY_NOR_RP.CABNCOM
RP_01,PX_NOR_RP,RPORRES,Char,200,"normalize(source.AR_PRG02_PX.PXMODE,if((source.AR_PRG02_PX.PXPRDEXM!='') && (AR_PRG02_PX.PXPRDEXM!=""N"")) ""Y"" else source.AR_PRG02_PX.PXPRDEXM,source.AR_PRG02_PX.PXTERM,source.AR_PRG02_PX.PXSTDTC)",,,,,RP_01.PX_NOR_RP.RPORRES
RP_01,PX_NOR_RP,RPSEQ,Num,8,"normalize(source.AR_PRG02_PX.PXSEQ +10000,source.AR_PRG02_PX.PXSEQ +20000,source.AR_PRG02_PX.PXSEQ +30000,source.AR_PRG02_PX.PXSEQ +40000)",,,,,RP_01.PX_NOR_RP.RPSEQ
RP_01,PX_NOR_RP,RPTEST,Char,200,"normalize(if (source.AR_PRG02_PX.PXMODE!="" "") ""Mode of Delivery or Termination"",if (source.AR_PRG02_PX.PXPRDEXM!="" "") ""Products of Conception Examined"",if (source.AR_PRG02_PX.PXTERM!="" "") ""Type of Delivery or Termination"",if (source.AR_PRG02_PX.PXSTDTC!="" "") ""Date of Delivery or Termination"")",,,,,RP_01.PX_NOR_RP.RPTEST
RP_01,PX_NOR_RP,RPTESTCD,Char,200,"normalize(if(source.AR_PRG02_PX.PXMODE != "" "") ""MEDYTN"",if(source.AR_PRG02_PX.PXPRDEXM != "" "") ""PROCOEX"",if(source.AR_PRG02_PX.PXTERM != "" "") ""TEDYTN"",if(source.AR_PRG02_PX.PXSTDTC != "" "")""DDTDTC"")",,,,,RP_01.PX_NOR_RP.RPTESTCD
RP_01,PX_NOR_RP,RPSTRESC,Char,200,"normalize(source.AR_PRG02_PX.PXMODE,if((source.AR_PRG02_PX.PXPRDEXM!='') && (AR_PRG02_PX.PXPRDEXM!=""N"")) ""Y"" else source.AR_PRG02_PX.PXPRDEXM,source.AR_PRG02_PX.PXTERM,source.AR_PRG02_PX.PXSTDTC)",,,,,RP_01.PX_NOR_RP.RPSTRESC
DA_01,CL_DISP_DA,STUDYID,Char,12,source.AR_DISP_DA.STUDYID,DA.STUDYID,,,,DA_01.CL_DISP_DA.STUDYID
DA_01,CL_DISP_DA,USUBJID,Char,30,source.AR_DISP_DA.USUBJID,DA.USUBJID,,,,DA_01.CL_DISP_DA.USUBJID
DA_01,CL_DISP_DA,VISIT,Char,60,source.AR_DISP_DA.VISIT,DA.VISIT,,,,DA_01.CL_DISP_DA.VISIT
DA_01,CL_DISP_DA,DASEQ,Num,8,source.AR_DISP_DA.DASEQ,DA.DASEQ,,,,DA_01.CL_DISP_DA.DASEQ
DA_01,CL_DISP_DA,DAGRPID,Char,40,source.AR_DISP_DA.DAGRPID,DA.DAGRPID,,,,DA_01.CL_DISP_DA.DAGRPID
DA_01,CL_DISP_DA,DACAT,Char,80,source.AR_DISP_DA.DACAT,DA.DACAT,,,,DA_01.CL_DISP_DA.DACAT
DA_01,CL_DISP_DA,DADTC,Char,19,source.AR_DISP_DA.DADTC,DA.DADTC,,,,DA_01.CL_DISP_DA.DADTC
DA_01,CL_DISP_DA,DADY,Num,8,source.AR_DISP_DA.DADY,DA.DADY,,,,DA_01.CL_DISP_DA.DADY
DA_01,CL_DISP_DA,DAORRES,Char,200,source.AR_DISP_DA.DAORRES,DA.DAORRES,,,,DA_01.CL_DISP_DA.DAORRES
DA_01,CL_DISP_DA,DAORRESU,Char,25,source.AR_DISP_DA.DAORRESU,DA.DAORRESU,,,,DA_01.CL_DISP_DA.DAORRESU
DA_01,CL_DISP_DA,DAREFID,Char,40,source.AR_DISP_DA.DAREFID,DA.DAREFID,,,,DA_01.CL_DISP_DA.DAREFID
DA_01,CL_DISP_DA,DASPID,Char,20,source.AR_DISP_DA.DASPID,DA.DASPID,,,,DA_01.CL_DISP_DA.DASPID
DA_01,CL_DISP_DA,DALOT,Char,50,source.AR_DISP_DA.DALOT,DA.DALOT,,,,DA_01.CL_DISP_DA.DALOT
DA_01,CL_DISP_DA,DAPERPRO,Char,2,source.AR_DISP_DA.DAPERPRO,DA.DAPERPRO,,,,DA_01.CL_DISP_DA.DAPERPRO
DA_01,CL_DISP_DA,DASTRESC,Char,80,source.AR_DISP_DA.DASTRESC,DA.DASTRESC,,,,DA_01.CL_DISP_DA.DASTRESC
DA_01,CL_DISP_DA,DASTRESN,Num,8,source.AR_DISP_DA.DASTRESN,DA.DASTRESN,,,,DA_01.CL_DISP_DA.DASTRESN
DA_01,CL_DISP_DA,DASTRESU,Char,25,source.AR_DISP_DA.DASTRESU,DA.DASTRESU,,,,DA_01.CL_DISP_DA.DASTRESU
DA_01,CL_DISP_DA,DATEST,Char,60,source.AR_DISP_DA.DATEST,DA.DATEST,,,,DA_01.CL_DISP_DA.DATEST
DA_01,CL_DISP_DA,DATESTCD,Char,8,source.AR_DISP_DA.DATESTCD,DA.DATESTCD,,,,DA_01.CL_DISP_DA.DATESTCD
DA_01,CL_DISP_DA,ELEMENT,Char,150,source.AR_DISP_DA.ELEMENT,DA.ELEMENT,,,,DA_01.CL_DISP_DA.ELEMENT
DA_01,CL_DISP_DA,EPOCH,Char,40,source.AR_DISP_DA.EPOCH,DA.EPOCH,,,,DA_01.CL_DISP_DA.EPOCH
DA_01,CL_DISP_DA,ETCD,Char,8,source.AR_DISP_DA.ETCD,DA.ETCD,,,,DA_01.CL_DISP_DA.ETCD
DA_01,CL_DISP_DA,MANUFID,Char,200,source.AR_DISP_DA.MANUFID,DA.MANUFID,,,,DA_01.CL_DISP_DA.MANUFID
DA_01,CL_DISP_DA,TAETORD,Num,8,source.AR_DISP_DA.TAETORD,DA.TAETORD,,,,DA_01.CL_DISP_DA.TAETORD
DA_01,CL_DISP_DA,VISITDY,Num,8,source.AR_DISP_DA.VISITDY,DA.VISITDY,,,,DA_01.CL_DISP_DA.VISITDY
DA_01,CL_DISP_DA,DOMAIN,Char,2,'DA',DA.DOMAIN,,,,DA_01.CL_DISP_DA.DOMAIN
DA_01,CL_DISP_DA,VISITNUM,Num,8,source.AR_DISP_DA.VISITNUM,DA.VISITNUM,,,,DA_01.CL_DISP_DA.VISITNUM
FA_01,CL_SM_FA,DOMAIN,Char,2,'FA',FA.PART_SM_FA.DOMAIN,,,,FA_01.CL_SM_FA.DOMAIN
FA_01,CL_SM_FA,FACAT,Char,20,source.AR_SM_EX.EXCAT,FA.PART_SM_FA.FACAT,,,,FA_01.CL_SM_FA.FACAT
FA_01,CL_SM_FA,FADTC,Char,19,source.AR_SM_EX.EXSTDTC,FA.PART_SM_FA.FADTC,,,,FA_01.CL_SM_FA.FADTC
FA_01,CL_SM_FA,FADY,Num,8,source.AR_SM_EX.EXSTDY,FA.PART_SM_FA.FADY,,,,FA_01.CL_SM_FA.FADY
FA_01,CL_SM_FA,FAOBJ,Char,40,source.AR_SM_EX.EXSPID,FA.PART_SM_FA.FAOBJ,,,,FA_01.CL_SM_FA.FAOBJ
FA_01,CL_SM_FA,FAREFID,Char,20,source.AR_SM_EX.EXSPID2,FA.PART_SM_FA.FAREFID,,,,FA_01.CL_SM_FA.FAREFID
FA_01,CL_SM_FA,STUDYID,Char,12,source.AR_SM_EX.STUDYID,FA.PART_SM_FA.STUDYID,,,,FA_01.CL_SM_FA.STUDYID
FA_01,CL_SM_FA,USUBJID,Char,30,source.AR_SM_EX.USUBJID,FA.PART_SM_FA.USUBJID,,,,FA_01.CL_SM_FA.USUBJID
FA_01,CL_SM_FA,VISIT,Char,60,source.AR_SM_EX.VISIT,FA.PART_SM_FA.VISIT,,,,FA_01.CL_SM_FA.VISIT
FA_01,CL_SM_FA,VISITNUM,Num,8,source.AR_SM_EX.VISITNUM,FA.PART_SM_FA.VISITNUM,,,,FA_01.CL_SM_FA.VISITNUM
FA_01,CL_SM_FA,ELEMENT,Char,150,source.AR_SM_EX.ELEMENT,FA.PART_SM_FA.ELEMENT,,,,FA_01.CL_SM_FA.ELEMENT
FA_01,CL_SM_FA,EPOCH,Char,40,source.AR_SM_EX.EPOCH,FA.PART_SM_FA.EPOCH,,,,FA_01.CL_SM_FA.EPOCH
FA_01,CL_SM_FA,ETCD,Char,8,source.AR_SM_EX.ETCD,FA.PART_SM_FA.ETCD,,,,FA_01.CL_SM_FA.ETCD
FA_01,CL_SM_FA,TAETORD,Num,8,source.AR_SM_EX.TAETORD,FA.PART_SM_FA.TAETORD,,,,FA_01.CL_SM_FA.TAETORD
FA_01,CL_SM_FA,FAGRPID,Char,40,source.AR_SM_EX.EXGRPID,FA.PART_SM_FA.FAGRPID,,,,FA_01.CL_SM_FA.FAGRPID
FA_01,CL_SM_FA,FALNKID,Char,200,"if((source.AR_SM_EX.EXSPID != '') && (source.AR_SM_EX.EXSTDTC != '' )&& (source.AR_SM_EX.EXTPT != '' ))
concat(lrtrim(source.AR_SM_EX.EXSPID), ""-"" , lrtrim(source.AR_SM_EX.EXSTDTC), ""-"" , source.AR_SM_EX.EXTPT)

else if((source.AR_SM_EX.EXSPID != '') && (source.AR_SM_EX.EXSTDTC != '' ))
concat(lrtrim(source.AR_SM_EX.EXSPID), ""-"" ,lrtrim(source.AR_SM_EX.EXSTDTC))

else if(lrtrim(source.AR_SM_EX.EXSPID) != '')  source.AR_SM_EX.EXSPID
else ''",FA.PART_SM_FA.FALNKID,,,,FA_01.CL_SM_FA.FALNKID
HO_01,CL_AE_HO,DOMAIN,Char,2,'HO',HO.PART_CL_AE_HO.DOMAIN,,,,HO_01.CL_AE_HO.DOMAIN
HO_01,CL_AE_HO,STUDYID,Char,12,source.AR_AE_HO.STUDYID,HO.PART_CL_AE_HO.STUDYID,,,,HO_01.CL_AE_HO.STUDYID
HO_01,CL_AE_HO,USUBJID,Char,30,source.AR_AE_HO.USUBJID,HO.PART_CL_AE_HO.USUBJID,,,,HO_01.CL_AE_HO.USUBJID
HO_01,CL_AE_HO,VISIT,Char,60,source.AR_AE_HO.VISIT,HO.PART_CL_AE_HO.VISIT,,,,HO_01.CL_AE_HO.VISIT
HO_01,CL_AE_HO,HOSEQ,Num,8,source.AR_AE_HO.HOSEQ,HO.PART_CL_AE_HO.HOSEQ,,,,HO_01.CL_AE_HO.HOSEQ
HO_01,CL_AE_HO,HOGRPID,Char,40,source.AR_AE_HO.HOGRPID,HO.PART_CL_AE_HO.HOGRPID,,,,HO_01.CL_AE_HO.HOGRPID
HO_01,CL_AE_HO,HOSPID,Char,20,source.AR_AE_HO.HOSPID,HO.PART_CL_AE_HO.HOSPID,,,,HO_01.CL_AE_HO.HOSPID
HO_01,CL_AE_HO,VISITNUM,Num,8,source.AR_AE_HO.VISITNUM,HO.PART_CL_AE_HO.VISITNUM,,,,HO_01.CL_AE_HO.VISITNUM
HO_01,CL_AE_HO,EPOCH,Char,40,source.AR_AE_HO.EPOCH,HO.PART_CL_AE_HO.EPOCH,,,,HO_01.CL_AE_HO.EPOCH
HO_01,CL_AE_HO,HODECOD,Char,150,source.AR_AE_HO.HODECOD,HO.PART_CL_AE_HO.HODECOD,,,,HO_01.CL_AE_HO.HODECOD
HO_01,CL_AE_HO,HOENDTC,Char,19,source.AR_AE_HO.HOENDTC,HO.PART_CL_AE_HO.HOENDTC,,,,HO_01.CL_AE_HO.HOENDTC
HO_01,CL_AE_HO,HOENDY,Num,8,source.AR_AE_HO.HOENDY,HO.PART_CL_AE_HO.HOENDY,,,,HO_01.CL_AE_HO.HOENDY
HO_01,CL_AE_HO,HOSTDTC,Char,19,source.AR_AE_HO.HOSTDTC,HO.PART_CL_AE_HO.HOSTDTC,,,,HO_01.CL_AE_HO.HOSTDTC
